timestamp,raw_ax,raw_ay,raw_az,raw_gx,raw_gy,raw_gz,acc_x,acc_y,acc_z,gyr_x,gyr_y,gyr_z,accel_norm,gyro_norm
0.000987000,0.017564207,0.017391566,0.998925178,0.067893766,-0.203469917,-0.107704803,0.172246027,0.170553003,9.796109601,0.001184970,-0.003551220,-0.001879803,9.799108140,0.004189150
0.002022000,0.017577928,0.017546687,0.998825652,0.048410434,-0.273148507,-0.081699476,0.172380583,0.172074220,9.795133583,0.000844921,-0.004767341,-0.001425925,9.798161384,0.005047246
0.002969000,0.017636996,0.017613124,0.998778834,0.022812104,-0.271928191,-0.038281828,0.172959842,0.172725743,9.794674456,0.000398146,-0.004746042,-0.000668144,9.797724072,0.004809351
0.003963999,0.017741185,0.017546332,0.998785729,-0.003885733,-0.207907453,0.031028636,0.173981590,0.172070741,9.794742068,-0.000067819,-0.003628670,0.000541552,9.797798228,0.003669485
0.004961000,0.017831530,0.017344491,0.998811131,-0.006488210,-0.116367333,0.111546487,0.174867572,0.170091352,9.794991175,-0.000113241,-0.002030993,0.001946853,9.798028468,0.002815670
0.005942000,0.017856651,0.017050704,0.998815413,0.022949567,-0.025368785,0.177087218,0.175113922,0.167210286,9.795033167,0.000400546,-0.000442769,0.003090755,9.798025256,0.003147896
0.006985000,0.017813168,0.016717999,0.998774452,0.059897404,0.057018690,0.225983635,0.174687508,0.163947567,9.794631483,0.001045407,0.000995164,0.003944158,9.797560943,0.004199954
0.007927999,0.017740962,0.016389739,0.998677032,0.071195602,0.128415391,0.260487109,0.173979403,0.160728437,9.793676112,0.001242598,0.002241271,0.004546358,9.796539912,0.005218881
0.008917000,0.017677628,0.016097407,0.998516152,0.048084535,0.172785074,0.253388554,0.173358307,0.157861640,9.792098423,0.000839233,0.003015668,0.004422465,9.794905049,0.005418188
0.009907000,0.017606681,0.015854259,0.998306105,0.017946512,0.170334190,0.170826197,0.172662553,0.155477164,9.790038563,0.000313226,0.002972892,0.002981480,9.792795340,0.004222016
0.010898000,0.017492015,0.015644576,0.998098564,0.012439130,0.122783303,0.029781220,0.171538070,0.153420882,9.788003285,0.000217104,0.002142973,0.000519780,9.790708431,0.002215770
0.011938000,0.017324037,0.015432944,0.997962287,0.039771292,0.050563481,-0.094289966,0.169890766,0.151345485,9.786666860,0.000694140,0.000882499,-0.001645670,9.789311343,0.001992201
0.012881000,0.017120409,0.015180906,0.997937393,0.086657807,-0.023277968,-0.127989814,0.167893856,0.148873830,9.786422734,0.001512464,-0.000406277,-0.002233844,9.788994927,0.002728125
0.013872000,0.016918118,0.014864800,0.998004708,0.120431244,-0.075844213,-0.068790480,0.165910059,0.145773887,9.787082865,0.002101922,-0.001323731,-0.001200620,9.789574413,0.002758954
0.014870000,0.016757936,0.014486611,0.998106668,0.104919791,-0.088537514,0.011095617,0.164339210,0.142065122,9.788082758,0.001831196,-0.001545271,0.000193655,9.790493039,0.002403881
0.015858000,0.016675200,0.014072325,0.998220090,0.031428091,-0.062384587,0.041363969,0.163527852,0.138002361,9.789195044,0.000548524,-0.001088816,0.000721937,9.791533364,0.001416896
0.016893000,0.016706001,0.013677365,0.998378325,-0.068280429,-0.002242902,0.019119082,0.163829908,0.134129135,9.790746802,-0.001191718,-0.000039146,0.000333691,9.793035985,0.001238174
0.017841000,0.016868591,0.013373111,0.998605679,-0.139958486,0.094489381,-0.024847677,0.165424366,0.131145419,9.792976382,-0.002442736,0.001649151,-0.000433674,9.795251440,0.002979049
0.018828000,0.017151644,0.013192217,0.998852845,-0.136757985,0.213892937,-0.074200109,0.168200167,0.129371456,9.795400256,-0.002386877,0.003733136,-0.001295036,9.797698426,0.004616341
0.019826000,0.017523112,0.013125489,0.999020284,-0.041008670,0.316781938,-0.108647443,0.171843029,0.128717080,9.797042270,-0.000715736,0.005528888,-0.001896256,9.799394642,0.005888690
0.020811000,0.017939568,0.013153563,0.999069505,0.119192578,0.358775139,-0.106882498,0.175927061,0.128992388,9.797524958,0.002080303,0.006261807,-0.001865451,9.799953299,0.006856953
0.021852000,0.018343744,0.013276231,0.999037153,0.267452240,0.323650897,-0.070739619,0.179890676,0.130195350,9.797207699,0.004667922,0.005648774,-0.001234639,9.799723985,0.007431183
0.022793000,0.018684420,0.013495825,0.998983294,0.328983426,0.234555423,-0.021542929,0.183231572,0.132348831,9.796679521,0.005741844,0.004093764,-0.000375995,9.799286692,0.007061802
0.023784999,0.018932401,0.013783661,0.998954925,0.280193031,0.149435103,0.019364331,0.185663431,0.135171542,9.796401319,0.004890291,0.002608135,0.000337971,9.799092869,0.005552615
0.024778000,0.019066013,0.014090501,0.998970113,0.152360305,0.124211758,0.040199265,0.186973720,0.138180616,9.796550257,0.002659189,0.002167904,0.000701610,9.799308649,0.003501907
0.025770000,0.019086360,0.014389319,0.999013240,0.006426611,0.152810499,0.036055118,0.187173250,0.141111011,9.796973187,0.000112166,0.002667046,0.000629281,9.799777027,0.002742574
0.026802999,0.019011465,0.014639876,0.999042096,-0.098955370,0.177261397,0.014759341,0.186438784,0.143568141,9.797256166,-0.001727097,0.003093795,0.000257599,9.800081613,0.003552575
0.027760000,0.018866977,0.014794636,0.999013178,-0.142422378,0.144478559,-0.008226506,0.185021841,0.145085817,9.796972586,-0.002485739,0.002521627,-0.000143580,9.799793612,0.003543743
0.028740000,0.018672585,0.014832144,0.998906067,-0.147417992,0.052993190,-0.016539389,0.183115510,0.145453644,9.795922184,-0.002572929,0.000924906,-0.000288667,9.798713154,0.002749317
0.029740000,0.018446894,0.014771274,0.998747650,-0.135386750,-0.053296931,-0.004839330,0.180902232,0.144856709,9.794368640,-0.002362945,-0.000930207,-0.000084462,9.797110091,0.002540851
0.030723000,0.018209879,0.014654214,0.998606097,-0.094676286,-0.116282515,0.014544361,0.178577914,0.143708745,9.792980476,-0.001652413,-0.002029513,0.000253847,9.795662759,0.002629416
0.031759000,0.017988602,0.014509373,0.998539328,-0.007953946,-0.098481596,0.028498817,0.176407925,0.142288345,9.792325699,-0.000138823,-0.001718828,0.000497398,9.794948102,0.001794727
0.032705000,0.017814984,0.014342332,0.998561251,0.096657619,-0.018892674,0.031576805,0.174705316,0.140650233,9.792540690,0.001686994,-0.000329739,0.000551119,9.795108861,0.001805106
0.033695999,0.017717585,0.014157505,0.998645213,0.154160038,0.067951031,0.009028010,0.173750155,0.138837696,9.793364078,0.002690600,0.001185969,0.000157569,9.795889188,0.002944602
0.034694000,0.017688082,0.013982033,0.998739962,0.127200946,0.116996758,-0.050120108,0.173460831,0.137116900,9.794293249,0.002220075,0.002041979,-0.000874761,9.796788758,0.003140640
0.035685000,0.017671797,0.013859283,0.998788244,0.032705046,0.113061741,-0.116353787,0.173301124,0.135913133,9.794766736,0.000570811,0.001973300,-0.002030757,9.797242524,0.002888548
0.036715000,0.017631405,0.013820697,0.998759116,-0.086016223,0.061270967,-0.140062377,0.172905022,0.135534740,9.794481084,-0.001501266,0.001069380,-0.002444550,9.796944703,0.003061568
0.037663000,0.017607514,0.013871331,0.998688077,-0.183481857,-0.010130374,-0.099062458,0.172670724,0.136031293,9.793784428,-0.003202363,-0.000176808,-0.001728966,9.796250973,0.003643585
0.038652000,0.017676667,0.013983529,0.998655008,-0.221536413,-0.049844321,-0.014094058,0.173348882,0.137131570,9.793460133,-0.003866540,-0.000869948,-0.000245988,9.795954077,0.003970825
0.039649000,0.017839087,0.014105105,0.998704629,-0.186746120,-0.021595122,0.074003935,0.174941681,0.138323826,9.793946749,-0.003259335,-0.000376906,0.001291612,9.796485645,0.003526129
0.040635000,0.018017118,0.014178495,0.998827999,-0.102839991,0.060207400,0.124859318,0.176687573,0.139043535,9.795156596,-0.001794896,0.001050817,0.002179206,9.797736695,0.003012443
0.041671000,0.018155651,0.014177872,0.998993261,-0.010261044,0.147621989,0.114226200,0.178046118,0.139037431,9.796777264,-0.000179089,0.002576490,0.001993623,9.799381439,0.003262653
0.042617000,0.018246773,0.014131373,0.999150301,0.063868657,0.201956660,0.055604752,0.178939716,0.138581432,9.798317297,0.001114718,0.003524809,0.000970486,9.800930879,0.003822135
0.043608000,0.018299360,0.014085249,0.999262672,0.103983194,0.210286364,-0.010169379,0.179455423,0.138129105,9.799419278,0.001814849,0.003670189,-0.000177489,9.802035609,0.004098228
0.044600000,0.018314642,0.014069958,0.999347366,0.100256808,0.186006203,-0.050430205,0.179605283,0.137979156,9.800249847,0.001749811,0.003246421,-0.000880173,9.802866589,0.003791542
0.045591000,0.018295207,0.014084831,0.999476800,0.058762565,0.147352830,-0.062267065,0.179414690,0.138125011,9.801519159,0.001025600,0.002571792,-0.001086765,9.804134127,0.002974396
0.046627000,0.018249770,0.014099684,0.999693839,0.003534781,0.105947435,-0.060756113,0.178969105,0.138270662,9.803647589,0.000061694,0.001849132,-0.001060394,9.806255900,0.002132494
0.047575000,0.018180124,0.014085388,0.999927040,-0.051071968,0.073644660,-0.069853328,0.178286112,0.138130468,9.805934511,-0.000891374,0.001285342,-0.001219171,9.808527799,0.001983186
0.048568000,0.018088259,0.014043047,1.000051318,-0.115006484,0.063042060,-0.102198713,0.177385229,0.137715252,9.807153257,-0.002007242,0.001100292,-0.001783704,9.809724054,0.002901941
0.049556000,0.018010664,0.014008877,1.000023700,-0.191440493,0.087593623,-0.140009224,0.176624280,0.137380152,9.806882418,-0.003341267,0.001528797,-0.002443622,9.809434857,0.004412774
0.050556000,0.018003557,0.014022196,0.999885255,-0.257102102,0.138982326,-0.153820887,0.176554586,0.137510764,9.805524740,-0.004487278,0.002425699,-0.002684681,9.808078107,0.005764303
0.051583000,0.018074309,0.014089111,0.999689469,-0.282824039,0.180008933,-0.133571327,0.177248424,0.138166985,9.803604730,-0.004936211,0.003141749,-0.002331259,9.806180338,0.006298534
0.052531000,0.018174370,0.014200904,0.999501444,-0.256000191,0.188659176,-0.089044012,0.178229681,0.139263297,9.801760832,-0.004468046,0.003292724,-0.001554111,9.804370225,0.005763743
0.053520000,0.018264939,0.014354984,0.999382730,-0.182942420,0.182605803,-0.018267786,0.179117860,0.140774308,9.800596647,-0.003192948,0.003187072,-0.000318833,9.803244119,0.004522610
0.054512000,0.018356295,0.014531040,0.999327345,-0.075286418,0.181700647,0.074883133,0.180013760,0.142500824,9.800053511,-0.001313996,0.003171275,0.001306957,9.802742486,0.003673106
0.055503000,0.018485642,0.014701911,0.999270938,0.046413925,0.183494493,0.153402343,0.181282217,0.144176493,9.799500349,0.000810076,0.003202583,0.002677376,9.802237356,0.004252188
0.056539000,0.018680128,0.014856891,0.999146839,0.144117460,0.186284706,0.162370294,0.183189474,0.145696327,9.798283351,0.002515324,0.003251281,0.002833896,9.801078636,0.004992860
0.057487000,0.018923560,0.014988593,0.998929199,0.186649129,0.197497085,0.087611027,0.185576732,0.146987883,9.796149032,0.003257642,0.003446974,0.001529101,9.799009134,0.004983173
0.058480000,0.019154315,0.015071445,0.998643741,0.166041747,0.213598266,-0.025793850,0.187839666,0.147800390,9.793349644,0.002897975,0.003727993,-0.000450188,9.796265918,0.004743296
0.059471000,0.019307992,0.015072807,0.998346306,0.101290442,0.215054393,-0.120384857,0.189346722,0.147813743,9.790432798,0.001767852,0.003753407,-0.002101112,9.793379164,0.004650595
0.060465000,0.019381061,0.014983642,0.998077195,0.029592656,0.183698267,-0.174190059,0.190063281,0.146939332,9.787793722,0.000516489,0.003206140,-0.003040190,9.790741604,0.004448466
0.061497999,0.019401617,0.014797723,0.997852826,-0.023844313,0.119465418,-0.206454769,0.190264872,0.145116090,9.785593415,-0.000416162,0.002085065,-0.003603315,9.788518677,0.004183846
0.062441000,0.019375053,0.014516600,0.997685051,-0.061255481,0.042469110,-0.230618849,0.190004366,0.142359218,9.783948101,-0.001069110,0.000741226,-0.004025058,9.786828304,0.004230072
0.063433000,0.019268006,0.014169253,0.997563989,-0.092328571,-0.023780856,-0.235077411,0.188954593,0.138952906,9.782760892,-0.001611438,-0.000415054,-0.004102875,9.785572156,0.004427480
0.064424000,0.019039126,0.013816167,0.997466094,-0.106103696,-0.069705054,-0.203680828,0.186710045,0.135490313,9.781800873,-0.001851859,-0.001216583,-0.003554901,9.784520765,0.004188887
0.065416000,0.018695578,0.013511390,0.997400142,-0.077857308,-0.102789856,-0.143549815,0.183340990,0.132501468,9.781154100,-0.001358866,-0.001794021,-0.002505417,9.783769523,0.003367810
0.066451000,0.018302385,0.013275429,0.997423270,-0.008815494,-0.129086360,-0.077567011,0.179485087,0.130187490,9.781380916,-0.000153859,-0.002252982,-0.001353800,9.783893719,0.002632940
0.067401000,0.017946753,0.013094592,0.997576890,0.067549914,-0.144376233,-0.020881824,0.175997527,0.128414085,9.782887407,0.001178968,-0.002519841,-0.000364457,9.785313042,0.002805778
0.068388000,0.017676054,0.012926855,0.997833149,0.127794355,-0.148615822,0.032033365,0.173342878,0.126769143,9.785400446,0.002230432,-0.002593835,0.000559088,9.787756641,0.003466322
0.069383000,0.017498137,0.012729334,0.998113764,0.174624890,-0.138191462,0.090224110,0.171598103,0.124832121,9.788152342,0.003047779,-0.002411896,0.001574708,9.790452249,0.004193555
0.070371000,0.017407523,0.012507892,0.998376289,0.209032446,-0.099953465,0.140271649,0.170709485,0.122660516,9.790726836,0.003648304,-0.001744517,0.002448202,9.792983167,0.004727278
0.071407000,0.017381725,0.012349656,0.998637885,0.219718471,-0.024120051,0.163000852,0.170456489,0.121108754,9.793292213,0.003834811,-0.000420974,0.002844902,9.795524239,0.004793376
0.072353000,0.017366305,0.012347709,0.998930556,0.194240794,0.081550881,0.148390740,0.170305274,0.121089664,9.796162336,0.003390141,0.001423331,0.002589907,9.798390843,0.004497394
0.073351000,0.017313248,0.012529455,0.999245674,0.127522051,0.179581463,0.092771731,0.169784959,0.122871983,9.799252593,0.002225680,0.003134288,0.001619172,9.801493551,0.004171226
0.074340000,0.017232579,0.012863565,0.999537933,0.030306572,0.227608487,0.013168933,0.168993870,0.126148478,9.802118673,0.000528949,0.003972518,0.000229841,9.804386918,0.004014164
0.075327000,0.017172771,0.013287335,0.999787020,-0.072415650,0.208392918,-0.049462195,0.168407356,0.130304240,9.804561382,-0.001263892,0.003637143,-0.000863278,9.806873311,0.003946071
0.076363000,0.017159557,0.013723746,1.000001939,-0.144812807,0.137127087,-0.058401361,0.168277768,0.134583974,9.806669017,-0.002527460,0.002393319,-0.001019296,9.809036011,0.003626982
0.077312000,0.017183338,0.014100750,1.000181934,-0.160779878,0.047781494,-0.013943682,0.168510977,0.138281121,9.808434161,-0.002806138,0.000833944,-0.000243363,9.810856145,0.002937533
0.078300000,0.017206179,0.014381308,1.000324690,-0.120706618,-0.031153606,0.048571564,0.168734971,0.141032450,9.809834124,-0.002106728,-0.000543733,0.000847734,9.812298772,0.002335080
0.079293000,0.017176063,0.014550656,1.000446162,-0.043572668,-0.087587364,0.091538019,0.168439637,0.142693190,9.811025351,-0.000760487,-0.001528688,0.001597640,9.813508633,0.002338307
0.080283000,0.017077199,0.014616742,1.000558347,0.040370539,-0.122541130,0.088805035,0.167470109,0.143341275,9.812125517,0.000704599,-0.002138746,0.001549940,9.814601373,0.002733681
0.081319000,0.016950767,0.014624846,1.000654828,0.103725828,-0.132033855,0.035944194,0.166230237,0.143420749,9.813071672,0.001810357,-0.002304425,0.000627345,9.815527374,0.002996887
0.082265000,0.016842346,0.014650853,1.000729962,0.134002298,-0.113174558,-0.043078527,0.165166989,0.143675786,9.813808484,0.002338781,-0.001975269,-0.000751862,9.816249784,0.003152282
0.083256000,0.016756284,0.014753303,1.000781478,0.131160736,-0.078220114,-0.109123498,0.164323017,0.144680483,9.814313684,0.002289187,-0.001365199,-0.001904564,9.816755451,0.003275898
0.084255000,0.016685071,0.014934668,1.000784130,0.106924340,-0.047431260,-0.131257787,0.163624650,0.146459066,9.814339689,0.001866182,-0.000827832,-0.002290881,9.816796159,0.003068562
0.085241000,0.016633039,0.015153648,1.000703905,0.076637968,-0.041266445,-0.108002268,0.163114396,0.148606525,9.813552954,0.001337585,-0.000720235,-0.001884995,9.816033404,0.002420967
0.086275000,0.016614130,0.015344485,1.000521996,0.051780473,-0.065243579,-0.066714756,0.162928959,0.150477993,9.811769034,0.000903740,-0.001138715,-0.001164392,9.814275371,0.001862586
0.087226000,0.016644421,0.015449320,1.000233047,0.048258159,-0.102436125,-0.029808884,0.163226007,0.151506072,9.808935407,0.000842264,-0.001787848,-0.000520263,9.811463226,0.002043644
0.088212999,0.016711697,0.015478522,0.999854141,0.084035330,-0.130818143,0.003763235,0.163885763,0.151792452,9.805219612,0.001466693,-0.002283207,0.000065681,9.807763819,0.002714505
0.089204000,0.016782600,0.015517088,0.999451195,0.160695225,-0.135551482,0.029500805,0.164581087,0.152170653,9.801268063,0.002804661,-0.002365820,0.000514886,9.803830806,0.003705176
0.090194999,0.016853437,0.015647532,0.999112516,0.248947248,-0.113702357,0.029741993,0.165275756,0.153449872,9.797946755,0.004344949,-0.001984480,0.000519096,9.800542003,0.004804811
0.091235000,0.016962178,0.015863211,0.998878137,0.304090202,-0.077180095,-0.002310390,0.166342140,0.155564958,9.795648281,0.005307375,-0.001347047,-0.000040324,9.798295536,0.005475801
0.092180000,0.017141999,0.016085684,0.998756000,0.301802069,-0.040180750,-0.049961936,0.168105583,0.157746670,9.794450527,0.005267440,-0.000701286,-0.000872000,9.797163091,0.005384989
0.093169000,0.017383294,0.016244110,0.998734419,0.249165535,-0.001327170,-0.090861015,0.170471877,0.159300305,9.794238894,0.004348759,-0.000023163,-0.001585824,9.797017544,0.004628939
0.094159999,0.017640973,0.016301587,0.998774170,0.167401642,0.045347113,-0.120892152,0.172998851,0.159863963,9.794628713,0.002921710,0.000791456,-0.002109966,9.797460728,0.003689817
0.095151000,0.017852288,0.016273860,0.998842207,0.080768868,0.087255038,-0.134405419,0.175071137,0.159592052,9.795295925,0.001409683,0.001522888,-0.002345817,9.798160122,0.003131972
0.096187000,0.017946827,0.016221176,0.998952289,0.016174614,0.102191694,-0.120407447,0.175998253,0.159075399,9.796375462,0.000282300,0.001783582,-0.002101506,9.799247550,0.002770773
0.097137000,0.017873918,0.016197148,0.999130972,-0.005951801,0.087029018,-0.072936833,0.175283259,0.158839758,9.798127751,-0.000103879,0.001518943,-0.001272988,9.800982691,0.001984560
0.098125000,0.017627986,0.016224833,0.999369390,0.013784884,0.059861045,0.004761708,0.172871488,0.159111258,9.800465828,0.000240592,0.001044772,0.000083107,9.803281665,0.001075333
0.099116000,0.017280537,0.016302989,0.999588181,0.053284064,0.028986288,0.091436215,0.169464181,0.159877704,9.802611432,0.000929982,0.000505906,0.001595863,9.805379639,0.001915095
0.100106999,0.016938379,0.016417896,0.999694716,0.083951361,-0.009276924,0.155268759,0.166108759,0.161004564,9.803656187,0.001465228,-0.000161913,0.002709951,9.806385125,0.003084954
0.101143000,0.016659537,0.016562474,0.999681289,0.093353428,-0.044113267,0.167931899,0.163374253,0.162422386,9.803524512,0.001629325,-0.000769922,0.002930965,9.806230929,0.003440644
0.102090000,0.016425881,0.016714492,0.999621629,0.090562060,-0.045495030,0.136198625,0.161082866,0.163913177,9.802939451,0.001580606,-0.000794038,0.002377114,9.805632927,0.002963020
0.103084000,0.016217792,0.016821459,0.999597394,0.076657563,0.012066491,0.094117641,0.159042209,0.164962163,9.802701785,0.001337927,0.000210600,0.001642663,9.805379606,0.002129024
0.104079000,0.016058553,0.016844740,0.999646913,0.037327964,0.116151989,0.057528261,0.157480606,0.165190466,9.803187402,0.000651496,0.002027235,0.001004058,9.805843730,0.002354200
0.105068000,0.015973852,0.016780058,0.999753001,-0.029773936,0.215464965,0.013497483,0.156649973,0.164556156,9.804227765,-0.000519653,0.003760573,0.000235576,9.806859845,0.003803609
0.106099000,0.015968542,0.016649034,0.999876018,-0.106599458,0.263132513,-0.040146504,0.156597906,0.163271252,9.805434149,-0.001860512,0.004592529,-0.000700689,9.808043600,0.005004377
0.107049000,0.016029649,0.016488920,0.999979016,-0.157136798,0.248447657,-0.063278653,0.157197160,0.161701071,9.806444218,-0.002742554,0.004336230,-0.001104421,9.809036975,0.005248260
0.108037000,0.016145748,0.016322255,1.000012653,-0.146000504,0.200175539,-0.013638618,0.158335698,0.160066640,9.806774088,-0.002548190,0.003493722,-0.000238039,9.809358263,0.004330823
0.109028000,0.016317062,0.016145506,0.999939483,-0.072799385,0.161186293,0.087972693,0.160015713,0.158333327,9.806056536,-0.001270589,0.002813232,0.001535413,9.808640031,0.003447631
0.110022000,0.016530930,0.015932420,0.999792397,0.011787075,0.153666705,0.168237433,0.162113049,0.156243666,9.804614110,0.000205723,0.002681990,0.002936297,9.807198916,0.003982114
0.111055000,0.016749380,0.015663565,0.999652906,0.030051233,0.174274474,0.175326407,0.164255303,0.153607103,9.803246174,0.000524493,0.003041663,0.003060023,9.805825334,0.004346326
0.112002000,0.016949664,0.015314241,0.999577998,-0.043986205,0.196465939,0.116961911,0.166219418,0.150181405,9.802511577,-0.000767704,0.003428978,0.002041370,9.805070962,0.004063797
0.112993000,0.017099443,0.014918097,0.999604016,-0.144125462,0.198447391,0.031545106,0.167688252,0.146296556,9.802766721,-0.002515464,0.003463560,0.000550566,9.805292317,0.004315893
0.113984000,0.017226338,0.014516770,0.999704594,-0.185125917,0.192939371,-0.051414639,0.168932671,0.142360879,9.803753059,-0.003231057,0.003367427,-0.000897355,9.806241834,0.004752319
0.114980000,0.017358722,0.014179831,0.999823267,-0.150056213,0.210105225,-0.109410658,0.170230910,0.139056635,9.804916844,-0.002618975,0.003667028,-0.001909576,9.807380365,0.004894140
0.116011000,0.017494797,0.013950573,0.999915097,-0.092492566,0.257780135,-0.133164719,0.171565347,0.136808388,9.805817382,-0.001614300,0.004499112,-0.002324163,9.808272311,0.005315045
0.116962000,0.017601234,0.013855160,0.999965066,-0.065460473,0.303215444,-0.138510555,0.172609138,0.135872707,9.806307419,-0.001142501,0.005292108,-0.002417465,9.808767532,0.005929237
0.117949000,0.017655011,0.013891666,0.999968165,-0.078141965,0.305377275,-0.150710523,0.173136517,0.136230708,9.806337803,-0.001363835,0.005329839,-0.002630395,9.808812169,0.006098049
0.118940000,0.017658116,0.014044719,0.999901959,-0.116461977,0.254885554,-0.175292864,0.173166968,0.137731648,9.805688548,-0.002032645,0.004448592,-0.003059438,9.808184577,0.005769036
0.119931000,0.017632212,0.014261204,0.999746518,-0.160320252,0.184999555,-0.190166250,0.172912935,0.139854636,9.804164190,-0.002798116,0.003228851,-0.003319027,9.806686172,0.005410257
0.120968000,0.017635722,0.014476815,0.999498352,-0.187546611,0.138180718,-0.174994811,0.172947356,0.141969062,9.801730511,-0.003273306,0.002411708,-0.003054236,9.804284115,0.005085197
0.121913000,0.017713227,0.014639900,0.999185743,-0.176228255,0.122608602,-0.136583850,0.173707421,0.143568379,9.798664864,-0.003075763,0.002139924,-0.002383838,9.801256004,0.004440977
0.122905000,0.017848706,0.014777851,0.998812713,-0.117069371,0.116830483,-0.093831271,0.175036009,0.144921215,9.795006689,-0.002043246,0.002039077,-0.001637665,9.797642359,0.003318830
0.124000000,0.017953193,0.014903161,0.998451083,-0.028404387,0.091594443,-0.045569807,0.176060680,0.146150083,9.791460315,-0.000495750,0.001598625,-0.000795343,9.794133566,0.001853089
0.124888000,0.017940040,0.014992847,0.998184489,0.052779637,0.036104526,0.013389424,0.175931698,0.147029602,9.788845918,0.000921178,0.000630143,0.000233690,9.791530732,0.001140290
0.125923000,0.017802809,0.015010550,0.998035177,0.095594138,-0.038103528,0.049836393,0.174585921,0.147203213,9.787381668,0.001668432,-0.000665032,0.000869809,9.790045401,0.001995621
0.126872000,0.017604718,0.014929123,0.997981753,0.089112304,-0.116270974,0.012172851,0.172643309,0.146404683,9.786857755,0.001555303,-0.002029311,0.000212456,9.789475204,0.002565582
0.127861000,0.017456726,0.014770310,0.997981414,0.048319355,-0.184777349,-0.085961476,0.171191999,0.144847257,9.786854435,0.000843332,-0.003224973,-0.001500311,9.789423229,0.003655488
0.128852000,0.017455295,0.014605207,0.997991855,0.015073162,-0.238706663,-0.164755359,0.171177973,0.143228149,9.786956823,0.000263076,-0.004166217,-0.002875523,9.789501522,0.005069044
0.129843000,0.017626688,0.014520994,0.997992910,0.017014338,-0.275515348,-0.174447164,0.172858764,0.142402301,9.786967172,0.000296956,-0.004808650,-0.003044677,9.789529355,0.005699242
0.130880000,0.017927606,0.014576341,0.998036892,0.035902899,-0.285849065,-0.134287000,0.175809760,0.142945072,9.787398487,0.000626624,-0.004989007,-0.002343750,9.790021017,0.005547614
0.131826000,0.018293981,0.014772312,0.998219732,0.039931297,-0.253098607,-0.085466653,0.179402666,0.144866895,9.789191536,0.000696933,-0.004417404,-0.001491674,9.791906998,0.004714262
0.132817000,0.018666718,0.015036148,0.998573721,0.030276615,-0.168598562,-0.041395810,0.183057973,0.147454242,9.792662982,0.000528427,-0.002942600,-0.000722493,9.795483717,0.003075732
0.133808000,0.018960145,0.015253572,0.998990769,0.021305304,-0.048899036,0.006285218,0.185935503,0.149586446,9.796752823,0.000371848,-0.000853449,0.000109698,9.799658871,0.000937379
0.134801999,0.019123947,0.015386588,0.999357308,-0.002568439,0.077286854,0.058205981,0.187541855,0.150890885,9.800347349,-0.000044828,0.001348910,0.001015886,9.803302922,0.001689258
0.135837999,0.019122015,0.015442614,0.999594362,-0.051891327,0.180562422,0.102631107,0.187522905,0.151440311,9.802672054,-0.000905675,0.003151409,0.001791251,9.805635033,0.003736335
0.136786000,0.018991642,0.015447050,0.999731786,-0.096182011,0.245066315,0.121093825,0.186244388,0.151483809,9.804019721,-0.001678693,0.004277214,0.002113486,9.806958601,0.005057607
0.137773000,0.018777057,0.015393581,0.999823337,-0.096037023,0.275783390,0.109302752,0.184140030,0.150959459,9.804917530,-0.001676162,0.004813328,0.001907693,9.807808321,0.005442145
0.138768000,0.018548706,0.015298867,0.999900176,-0.051539477,0.287031263,0.087623917,0.181900667,0.150030636,9.805671065,-0.000899534,0.005009641,0.001529326,9.808505598,0.005314555
0.139758000,0.018359953,0.015207025,0.999962371,-0.010333783,0.280997038,0.067898154,0.180049634,0.149129976,9.806280989,-0.000180359,0.004904323,0.001185046,9.809067461,0.005048688
0.140792000,0.018262074,0.015178059,0.999987720,-0.023401225,0.242235869,0.049957223,0.179089768,0.148845916,9.806529576,-0.000408428,0.004227813,0.000871918,9.809294092,0.004336065
0.141738000,0.018266517,0.015262535,0.999977633,-0.091721848,0.160743669,0.033389010,0.179133337,0.149674343,9.806430658,-0.001600848,0.002805506,0.000582748,9.809208602,0.003282252
0.142729000,0.018343890,0.015457918,0.999969068,-0.152084351,0.047932398,0.006474896,0.179892113,0.151590396,9.806346656,-0.002654373,0.000836578,0.000113008,9.809167934,0.002785378
0.143723000,0.018446594,0.015707163,1.000018138,-0.143896863,-0.070727870,-0.051533360,0.180899287,0.154034653,9.806827874,-0.002511474,-0.001234434,-0.000899427,9.809705611,0.002939438
0.144711000,0.018544037,0.015925204,1.000175656,-0.072534166,-0.170368701,-0.145102277,0.181854881,0.156172901,9.808372600,-0.001265960,-0.002973495,-0.002532512,9.811301353,0.004105843
0.145747999,0.018636844,0.016030556,1.000427878,0.005467858,-0.231006473,-0.241710022,0.182765004,0.157206056,9.810846046,0.000095432,-0.004031824,-0.004218636,9.813807463,0.005836231
0.146704000,0.018756011,0.015996961,1.000699861,0.032922432,-0.241563097,-0.288197607,0.183933635,0.156876601,9.813513294,0.000574605,-0.004216071,-0.005029997,9.816490463,0.006588346
0.147687000,0.018943279,0.015844868,1.000951501,0.010741393,-0.203015938,-0.242328331,0.185770104,0.155385079,9.815981037,0.000187473,-0.003543297,-0.004229427,9.818968315,0.005520702
0.148679000,0.019207104,0.015647120,1.001134155,-0.006417079,-0.130537927,-0.103187740,0.188357349,0.153445832,9.817772257,-0.000111999,-0.002278317,-0.001800966,9.820777780,0.002906329
0.149667000,0.019507492,0.015502589,1.001197038,0.021480082,-0.043483850,0.078674920,0.191303147,0.152028464,9.818388933,0.000374898,-0.000758936,0.001373136,9.821429162,0.001613083
0.150704000,0.019769482,0.015473038,1.001122225,0.080466688,0.043122072,0.228280589,0.193872392,0.151738664,9.817655272,0.001404409,0.000752622,0.003984248,9.820741630,0.004291041
0.151650000,0.019913955,0.015583834,1.000976001,0.126964852,0.113526434,0.294996262,0.195289188,0.152825205,9.816221302,0.002215955,0.001981410,0.005148656,9.819353037,0.005945175
0.152641999,0.019943969,0.015815007,1.000865461,0.141846910,0.146077186,0.280478179,0.195583520,0.155092238,9.815137272,0.002475696,0.002549528,0.004895268,9.818310760,0.006049199
0.153635000,0.019896837,0.016115076,1.000850146,0.135617942,0.114585318,0.211793348,0.195121315,0.158034908,9.814987080,0.002366980,0.001999891,0.003696491,9.818198345,0.004823505
0.154628000,0.019797343,0.016444114,1.000913089,0.111708775,0.020803984,0.109433234,0.194145610,0.161261674,9.815604343,0.001949686,0.000363098,0.001909970,9.818848531,0.002753380
0.155659999,0.019641844,0.016762896,1.000997583,0.072253503,-0.080675542,-0.004678905,0.192620691,0.164387852,9.816432946,0.001261062,-0.001408054,-0.000081662,9.819698666,0.001891973
0.156614000,0.019445831,0.017037752,1.001013168,0.023986049,-0.130611792,-0.089435734,0.190698459,0.167083267,9.816585783,0.000418636,-0.002279606,-0.001560948,9.819859426,0.002794355
0.157597000,0.019248269,0.017260649,1.000886070,-0.030971337,-0.126274213,-0.101880379,0.188761041,0.169269148,9.815339380,-0.000540552,-0.002203901,-0.001778148,9.818613442,0.002882913
0.158592000,0.019083469,0.017421138,1.000613685,-0.087524764,-0.107307129,-0.053939354,0.187144905,0.170843001,9.812668196,-0.001527595,-0.001872863,-0.000941419,9.815939469,0.002593729
0.159579000,0.018978499,0.017481599,1.000292896,-0.131611854,-0.104354657,-0.013302944,0.186115500,0.171435921,9.809522326,-0.002297060,-0.001821332,-0.000232180,9.812785411,0.002940688
0.160616000,0.018920950,0.017419620,1.000029646,-0.144538596,-0.118270181,-0.023176828,0.185551133,0.170828119,9.806940729,-0.002522674,-0.002064204,-0.000404512,9.810183379,0.003284578
0.161562000,0.018896444,0.017222813,0.999863040,-0.125676662,-0.132282451,-0.070148610,0.185310808,0.168898101,9.805306881,-0.002193472,-0.002308764,-0.001224324,9.808512104,0.003411844
0.162552999,0.018896753,0.016891538,0.999723485,-0.103108168,-0.132494032,-0.126698017,0.185313843,0.165649405,9.803938311,-0.001799577,-0.002312457,-0.002211298,9.807088628,0.003670936
0.163545000,0.018911332,0.016486014,0.999523671,-0.099775247,-0.111800902,-0.180338591,0.185456814,0.161672566,9.801978804,-0.001741407,-0.001951294,-0.003147502,9.805066074,0.004092287
0.164536000,0.018918976,0.016062722,0.999246769,-0.103701949,-0.073382378,-0.205756426,0.185531774,0.157521494,9.799263332,-0.001809940,-0.001280764,-0.003591127,9.802285290,0.004220478
0.165572000,0.018898084,0.015627778,0.998975541,-0.093580477,-0.030519888,-0.161921814,0.185326893,0.153256146,9.796603491,-0.001633287,-0.000532673,-0.002826069,9.799554758,0.003307270
0.166520000,0.018844482,0.015148257,0.998798421,-0.058707993,0.015065894,-0.058328681,0.184801241,0.148553655,9.794866537,-0.001024648,0.000262949,-0.001018028,9.797735971,0.001468137
0.167509000,0.018773584,0.014651574,0.998716539,0.007243386,0.076104507,0.047091670,0.184105969,0.143682863,9.794063547,0.000126421,0.001328274,0.000821905,9.796847480,0.001567106
0.168500000,0.018701761,0.014227230,0.998652814,0.096019551,0.153189346,0.111432448,0.183401629,0.139521467,9.793438623,0.001675857,0.002673658,0.001944863,9.796149369,0.003706675
0.169492000,0.018636937,0.013963747,0.998547331,0.171192631,0.212679058,0.126803204,0.182765923,0.136937575,9.792404188,0.002987875,0.003711950,0.002213133,9.795066874,0.005253944
0.170527000,0.018575670,0.013904998,0.998413598,0.186384812,0.213118494,0.095543936,0.182165097,0.136361450,9.791092711,0.003253029,0.003719619,0.001667556,9.793736521,0.005215219
0.171474000,0.018496641,0.014022203,0.998286491,0.135486320,0.161909923,0.021778686,0.181390082,0.137510839,9.789846216,0.002364682,0.002825861,0.000380110,9.792492049,0.003704281
0.172465000,0.018346102,0.014287172,0.998135090,0.055844467,0.111643568,-0.064911157,0.179913803,0.140109296,9.788361485,0.000974670,0.001948548,-0.001132913,9.791017320,0.002455670
0.173485000,0.018085263,0.014663911,0.997917526,-0.028868964,0.104904063,-0.122251213,0.177355847,0.143803840,9.786227909,-0.000503858,0.001830921,-0.002133686,9.788891221,0.002856355
0.174448000,0.017745986,0.015086648,0.997657788,-0.120154366,0.129262209,-0.126419261,0.174028673,0.147949474,9.783680743,-0.002097089,0.002256051,-0.002206432,9.786346811,0.003788917
0.175484000,0.017397473,0.015510499,0.997444557,-0.203458622,0.130631879,-0.089589231,0.170610927,0.152106036,9.781589664,-0.003551023,0.002279956,-0.001563627,9.784259844,0.004500322
0.176439000,0.017124362,0.015917619,0.997386114,-0.250571758,0.089470491,-0.036576331,0.167932620,0.156098514,9.781016535,-0.004373302,0.001561555,-0.000638377,9.783703418,0.004687403
0.177422000,0.016974462,0.016328125,0.997532265,-0.265560746,0.046249863,0.028691500,0.166462605,0.160124207,9.782449788,-0.004634909,0.000807212,0.000500761,9.785176208,0.004731251
0.178412000,0.016940265,0.016741635,0.997876312,-0.276063085,0.040964138,0.110468052,0.166127246,0.164179360,9.785823737,-0.004818210,0.000714959,0.001928031,9.788610694,0.005238666
0.179408999,0.016976657,0.017121886,0.998396143,-0.285236537,0.069388926,0.196536466,0.166484130,0.167908342,9.790921537,-0.004978317,0.001211065,0.003430208,9.793776326,0.006165764
0.180440000,0.017027882,0.017409525,0.999028720,-0.266722739,0.109147809,0.251939714,0.166986477,0.170729120,9.797125000,-0.004655190,0.001904989,0.004397178,9.800035264,0.006680939
0.181386000,0.017054309,0.017589075,0.999706150,-0.201404676,0.149960011,0.251065791,0.167245640,0.172489903,9.803768318,-0.003515175,0.002617296,0.004381925,9.806711840,0.006197415
0.182377000,0.017042423,0.017685546,1.000341846,-0.108226694,0.180943608,0.202965692,0.167129081,0.173435963,9.810002363,-0.001888912,0.003158062,0.003542420,9.812958704,0.005107845
0.183372000,0.016985296,0.017753949,1.000890963,-0.038250361,0.173219472,0.140514955,0.166568850,0.174106768,9.815387358,-0.000667595,0.003023250,0.002452449,9.818344430,0.003949712
0.184360000,0.016886848,0.017816678,1.001300439,-0.034832347,0.097201779,0.090977244,0.165603409,0.174721921,9.819402951,-0.000607939,0.001696491,0.001587852,9.822353413,0.002401863
0.185396000,0.016790647,0.017842809,1.001542314,-0.098567188,-0.032164130,0.054115701,0.164660001,0.174978186,9.821774930,-0.001720322,-0.000561370,0.000944497,9.824713383,0.002041254
0.186345000,0.016721741,0.017789477,1.001671925,-0.186383486,-0.147001848,0.019027766,0.163984264,0.174455170,9.823045987,-0.003253005,-0.002565666,0.000332097,9.825963459,0.004156318
0.187333000,0.016664633,0.017659265,1.001751889,-0.238866568,-0.185637504,-0.019975865,0.163424225,0.173178235,9.823830167,-0.004169008,-0.003239986,-0.000348645,9.826715490,0.005291473
0.188325000,0.016606812,0.017490736,1.001809269,-0.224868491,-0.151510090,-0.056523707,0.162857191,0.171525523,9.824392866,-0.003924696,-0.002644350,-0.000986525,9.827239626,0.004834155
0.189317000,0.016555887,0.017315726,1.001818888,-0.155416265,-0.101972662,-0.079488382,0.162357788,0.169809265,9.824487202,-0.002712526,-0.001779759,-0.001387334,9.827295865,0.003528460
0.190355000,0.016534883,0.017138110,1.001730099,-0.065875486,-0.084969684,-0.097166382,0.162151806,0.168067450,9.823616477,-0.001149744,-0.001483001,-0.001695873,9.826392042,0.002529266
0.191300000,0.016576648,0.016923916,1.001491498,0.008575389,-0.106814705,-0.131507590,0.162561382,0.165966919,9.821276599,0.000149669,-0.001864268,-0.002295240,9.824023883,0.002960747
0.192292000,0.016699063,0.016662019,1.001116912,0.053419676,-0.143734634,-0.190232351,0.163761863,0.163398592,9.817603167,0.000932349,-0.002508643,-0.003320181,9.820328354,0.004264524
0.193289000,0.016884207,0.016349330,1.000663930,0.066981100,-0.155914903,-0.255744278,0.165577512,0.160332154,9.813160933,0.001169041,-0.002721228,-0.004463580,9.815867247,0.005356798
0.194272000,0.017073558,0.016021415,1.000251438,0.054207791,-0.108629726,-0.298427135,0.167434407,0.157116405,9.809115763,0.000946104,-0.001895946,-0.005208536,9.811802684,0.005623040
0.195308000,0.017232366,0.015706788,0.999948753,0.022392776,-0.004220494,-0.293849647,0.168991779,0.154030971,9.806147438,0.000390828,-0.000073662,-0.005128644,9.808812942,0.005144041
0.196257000,0.017348639,0.015446224,0.999750409,-0.021363435,0.106201045,-0.224638671,0.170132035,0.151475717,9.804202346,-0.000372862,0.001853558,-0.003920684,9.806848293,0.004352754
0.197245000,0.017406432,0.015255701,0.999593470,-0.065733925,0.162600145,-0.096992187,0.170698787,0.149607319,9.802663305,-0.001147273,0.002837908,-0.001692833,9.805290832,0.003497948
0.198237000,0.017383358,0.015154472,0.999470477,-0.102218963,0.148235202,0.049917649,0.170472506,0.148614606,9.801457151,-0.001784057,0.002587192,0.000871227,9.804065965,0.003261206
0.199228000,0.017323687,0.015105175,0.999364618,-0.130909026,0.093271397,0.170745596,0.169887331,0.148131163,9.800419032,-0.002284794,0.001627893,0.002980073,9.803010647,0.004092817
0.200264000,0.017298793,0.015067243,0.999221927,-0.153286994,0.031298552,0.228293508,0.169643210,0.147759183,9.799019714,-0.002675363,0.000546263,0.003984473,9.801601857,0.004830321
0.201211000,0.017348167,0.015056280,0.999005136,-0.159984246,-0.031132745,0.207496762,0.170127399,0.147651671,9.796893714,-0.002792252,-0.000543369,0.003621502,9.799483190,0.004605127
0.202208000,0.017453979,0.015133756,0.998708931,-0.149286747,-0.096347556,0.121034436,0.171165060,0.148411445,9.793988934,-0.002605545,-0.001681582,0.002112449,9.796608734,0.003752203
0.203193000,0.017556813,0.015326395,0.998337398,-0.134823918,-0.153713077,0.004153318,0.172173517,0.150300594,9.790345447,-0.002353121,-0.002682799,0.000072489,9.793012711,0.003569292
0.204187000,0.017587387,0.015570354,0.997945585,-0.121178031,-0.188185766,-0.094857760,0.172473352,0.152693015,9.786503070,-0.002114956,-0.003284461,-0.001655580,9.789213684,0.004242837
0.205220000,0.017534276,0.015775586,0.997608649,-0.085111022,-0.196591318,-0.144284591,0.171952506,0.154705650,9.783198855,-0.001485468,-0.003431166,-0.002518241,9.785932829,0.004507888
0.206169000,0.017439743,0.015893472,0.997382703,-0.013700084,-0.182178721,-0.151757732,0.171025455,0.155861716,9.780983089,-0.000239112,-0.003179619,-0.002648672,9.783719781,0.004145191
0.207157000,0.017357837,0.015889942,0.997325803,0.053469189,-0.142309383,-0.148481160,0.170222233,0.155827101,9.780425084,0.000933213,-0.002483767,-0.002591485,9.783147373,0.003708879
0.208148000,0.017304297,0.015777480,0.997437233,0.072369859,-0.080383144,-0.143338040,0.169697184,0.154724221,9.781517841,0.001263092,-0.001402951,-0.002501721,9.784213202,0.003134052
0.209140000,0.017286162,0.015620932,0.997657310,0.044334106,-0.021851780,-0.118516319,0.169519345,0.153189015,9.783676056,0.000773776,-0.000381386,-0.002068500,9.786343589,0.002241177
0.210176000,0.017325249,0.015502550,0.997874986,0.006834801,-0.003947300,-0.068887085,0.169902651,0.152028084,9.785810728,0.000119290,-0.000068893,-0.001202306,9.788466225,0.001210172
0.211122000,0.017433555,0.015462759,0.997997103,-0.014320849,-0.045931090,-0.024662131,0.170964772,0.151637864,9.787008294,-0.000249946,-0.000801649,-0.000430435,9.789675906,0.000943604
0.212113000,0.017607595,0.015489172,0.998011833,-0.020719033,-0.126515493,-0.016596736,0.172671523,0.151896891,9.787152738,-0.000361615,-0.002208112,-0.000289668,9.789854281,0.002256198
0.213109000,0.017817234,0.015515937,0.997973025,-0.018678678,-0.199951500,-0.039065987,0.174727382,0.152159365,9.786772164,-0.000326004,-0.003489812,-0.000681830,9.789514366,0.003570708
0.214096000,0.018051179,0.015462167,0.997930831,-0.012864647,-0.236611232,-0.069590703,0.177021594,0.151632062,9.786358383,-0.000224530,-0.004129645,-0.001214587,9.789133738,0.004310406
0.215132000,0.018329982,0.015312970,0.997898084,-0.000636199,-0.239972293,-0.092813231,0.179755721,0.150168938,9.786037246,-0.000011104,-0.004188307,-0.001619896,9.788839963,0.004490668
0.216083000,0.018658732,0.015137227,0.997891225,0.023753108,-0.231967732,-0.108159259,0.182979658,0.148445491,9.785969984,0.000414570,-0.004048601,-0.001887735,9.788806166,0.004486266
0.217069000,0.018983650,0.015014917,0.997916098,0.063701093,-0.222666144,-0.116799764,0.186166014,0.147246039,9.786213899,0.001111794,-0.003886257,-0.002038540,9.789091973,0.004527110
0.218060000,0.019237160,0.014962022,0.997953539,0.106745198,-0.194733426,-0.112101033,0.188652095,0.146727313,9.786581076,0.001863055,-0.003398739,-0.001956532,9.789498847,0.004341707
0.219052999,0.019363174,0.014966414,0.997988296,0.118028261,-0.126188427,-0.093261957,0.189887866,0.146770384,9.786921927,0.002059982,-0.002202404,-0.001627728,9.789864133,0.003426894
0.220087999,0.019341913,0.015020771,0.998041797,0.075005196,-0.022161612,-0.062497821,0.189679368,0.147303446,9.787446586,0.001309088,-0.000386793,-0.001090793,9.790392599,0.001747326
0.221034999,0.019193548,0.015139330,0.998164950,-0.000865663,0.085751154,-0.023098627,0.188224412,0.148466114,9.788654312,-0.000015109,0.001496640,-0.000403147,9.791589444,0.001550060
0.222025000,0.018971752,0.015307727,0.998403896,-0.059181597,0.170030922,0.013277173,0.186049334,0.150117522,9.790997569,-0.001032914,0.002967599,0.000231730,9.793915612,0.003150755
0.223015000,0.018741734,0.015472935,0.998779413,-0.072761983,0.227135777,0.033006724,0.183793626,0.151737657,9.794680132,-0.001269936,0.003964267,0.000576076,9.797579462,0.004202382
0.224008000,0.018580144,0.015573773,0.999232256,-0.047756601,0.265969604,0.035277478,0.182208970,0.152726536,9.799121002,-0.000833510,0.004642045,0.000615708,9.802004790,0.004756303
0.225044000,0.018539519,0.015588933,0.999616795,-0.002757128,0.280204654,0.031358436,0.181810572,0.152875207,9.802892045,-0.000048121,0.004890494,0.000547308,9.805769646,0.004921259
0.225996000,0.018590389,0.015568074,0.999851010,0.043772064,0.251558304,0.025118342,0.182309434,0.152670649,9.805188905,0.000763967,0.004390521,0.000438398,9.808071907,0.004478003
0.226980999,0.018672041,0.015576601,0.999982137,0.082467690,0.187398776,0.013256870,0.183110174,0.152754274,9.806474827,0.001439333,0.003270726,0.000231376,9.809373667,0.003580902
0.227973000,0.018737466,0.015653399,1.000099916,0.112985939,0.128875256,-0.004811824,0.183751775,0.153507405,9.807629838,0.001971977,0.002249298,-0.000083982,9.810552088,0.002992505
0.228963999,0.018790682,0.015805964,1.000268508,0.136666685,0.112079412,-0.028230466,0.184273638,0.155003561,9.809283160,0.002385284,0.001956155,-0.000492715,9.812238225,0.003123922
0.230000000,0.018864017,0.016012968,1.000471113,0.138536602,0.127351999,-0.052774563,0.184992813,0.157033573,9.811270041,0.002417920,0.002222712,-0.000921090,9.814270309,0.003411039
0.230945999,0.018965219,0.016234038,1.000706610,0.098362342,0.133052737,-0.073343128,0.185985269,0.159201531,9.813579475,0.001716747,0.002322208,-0.001280079,9.816632710,0.003158872
0.231938000,0.019043245,0.016390768,1.000994662,0.019582532,0.113284342,-0.082529686,0.186750437,0.160738521,9.816404298,0.000341780,0.001977185,-0.001440415,9.819496217,0.002469993
0.232929000,0.019055277,0.016425194,1.001355307,-0.069278270,0.101531699,-0.064713627,0.186868431,0.161076132,9.819941020,-0.001209134,0.001772062,-0.001129466,9.823039600,0.002424439
0.233922000,0.018994144,0.016309268,1.001765706,-0.141068473,0.132493585,-0.020010933,0.186268920,0.159939286,9.823965663,-0.002462109,0.002312449,-0.000349257,9.827033023,0.003395789
0.234959000,0.018866289,0.016084699,1.002213458,-0.182768911,0.187196702,0.021219095,0.185015092,0.157737012,9.828356610,-0.003189919,0.003267199,0.000370343,9.831363344,0.004581193
0.235913000,0.018663644,0.015863221,1.002657707,-0.182266340,0.209693849,0.039054852,0.183027828,0.155565052,9.832713202,-0.003181148,0.003659848,0.000681636,9.835646831,0.004896817
0.236894000,0.018385568,0.015718976,1.003065899,-0.132943943,0.164334148,0.042093836,0.180300826,0.154150499,9.836716203,-0.002320310,0.002868172,0.000734676,9.839576028,0.003761648
0.237885000,0.018092241,0.015635871,1.003425378,-0.057450019,0.065815084,0.040110476,0.177424277,0.153335511,9.840241482,-0.001002692,0.001148690,0.000700060,9.843035283,0.001677785
0.238877000,0.017861319,0.015555888,1.003746522,-0.005540597,-0.037853301,0.027576067,0.175159707,0.152551148,9.843390835,-0.000096702,-0.000660665,0.000481293,9.846131012,0.000823087
0.239912000,0.017746136,0.015443086,1.003994465,-0.019859614,-0.099583589,0.009349791,0.174030145,0.151444940,9.845822319,-0.000346616,-0.001738062,0.000163185,9.848524722,0.001779784
0.240859000,0.017728300,0.015292087,1.004133826,-0.097896285,-0.092693686,0.011397067,0.173855236,0.149964149,9.847188983,-0.001708613,-0.001617810,0.000198916,9.849865265,0.002361405
0.241854000,0.017766538,0.015153838,1.004125984,-0.184423208,-0.030801617,0.039931316,0.174230216,0.148608387,9.847112084,-0.003218792,-0.000537590,0.000696933,9.849774465,0.003336966
0.242841000,0.017827328,0.015097986,1.004003126,-0.216924250,0.035457786,0.073411182,0.174826368,0.148060666,9.845907252,-0.003786042,0.000618855,0.001281267,9.848572274,0.004044594
0.243835000,0.017928104,0.015162831,1.003831259,-0.171806768,0.069113128,0.086251445,0.175814637,0.148696578,9.844221812,-0.002998594,0.001206252,0.001505372,9.846914468,0.003565495
0.244868000,0.018089329,0.015310387,1.003692845,-0.074315637,0.069260433,0.064046219,0.177395716,0.150143609,9.842864442,-0.001297053,0.001208823,0.001117817,9.845607791,0.002095975
0.245819000,0.018309485,0.015475439,1.003596241,0.028128047,0.047269560,0.008993027,0.179554714,0.151762210,9.841917074,0.000490927,0.000825009,0.000156958,9.844724646,0.000972772
0.246806000,0.018521551,0.015595821,1.003514798,0.097209848,0.015633117,-0.057687711,0.181634373,0.152942762,9.841118394,0.001696632,0.000272849,-0.001006840,9.843982617,0.001991666
0.247800000,0.018653146,0.015661173,1.003412100,0.108979777,0.001984618,-0.100888640,0.182924875,0.153583643,9.840111273,0.001902056,0.000034638,-0.001760839,9.843009668,0.002592213
0.248789000,0.018668736,0.015677473,1.003264042,0.070681527,0.041936263,-0.093597896,0.183077757,0.153743495,9.838659315,0.001233625,0.000731926,-0.001633591,9.841563476,0.002173975
0.249824000,0.018596266,0.015642603,1.003055552,0.020457517,0.129033566,-0.034663428,0.182367072,0.153401533,9.836614725,0.000357051,0.002252061,-0.000604991,9.839500954,0.002359084
0.250771000,0.018484436,0.015587990,1.002779877,-0.006654395,0.211983219,0.050057683,0.181270398,0.152865966,9.833911284,-0.000116141,0.003699805,0.000873671,9.836769698,0.003803334
0.251765999,0.018342473,0.015580769,1.002434594,0.005128685,0.240982935,0.120564990,0.179878215,0.152795146,9.830525212,0.000089512,0.004205946,0.002104256,9.833357945,0.004703816
0.252753000,0.018168284,0.015675338,1.002043676,0.042313486,0.198678911,0.142914653,0.178170005,0.153722554,9.826691619,0.000738510,0.003467601,0.002494331,9.829508805,0.004334898
0.253744000,0.017951242,0.015867785,1.001605243,0.073866911,0.106587768,0.117746018,0.176041546,0.155609809,9.822392052,0.001289221,0.001860307,0.002055056,9.825201813,0.003057137
0.254783000,0.017698751,0.016115745,1.001131222,0.074302994,0.001372716,0.071035959,0.173565456,0.158041466,9.817743496,0.001296832,0.000023958,0.001239811,9.820549344,0.001794291
0.255727000,0.017431448,0.016387924,1.000631726,0.031198099,-0.076803498,0.027982149,0.170944110,0.160710638,9.812845120,0.000544510,-0.001340474,0.000488381,9.815649706,0.001527048
0.256718000,0.017186811,0.016655595,1.000133280,-0.047892056,-0.099099420,0.000302453,0.168545035,0.163335593,9.807957026,-0.000835874,-0.001729611,0.000005279,9.810764851,0.001921007
0.257712999,0.016958118,0.016910097,0.999632341,-0.138532907,-0.061641913,-0.028786719,0.166302325,0.165831407,9.803044497,-0.002417855,-0.001075854,-0.000502423,9.805857328,0.002693681
0.258700000,0.016733278,0.017110049,0.999199555,-0.204050511,0.018000774,-0.075726651,0.164097397,0.167792259,9.798800313,-0.003561353,0.000314173,-0.001321679,9.801610571,0.003811663
0.259739000,0.016482077,0.017252327,0.998868864,-0.208518833,0.100878745,-0.122784108,0.161633957,0.169187530,9.795557345,-0.003639340,0.001760666,-0.002142987,9.798351579,0.004575711
0.260682000,0.016210800,0.017375600,0.998629954,-0.145534202,0.153160661,-0.133059353,0.158973645,0.170396430,9.793214434,-0.002540051,0.002673158,-0.002322324,9.795986756,0.004357846
0.261674000,0.015937153,0.017527789,0.998428853,-0.046919480,0.166669339,-0.095191993,0.156290078,0.171888891,9.791242316,-0.000818899,0.002908929,-0.001661414,9.793998084,0.003448588
0.262735000,0.015720602,0.017689974,0.998271363,0.039758828,0.150169119,-0.032188069,0.154166446,0.173479388,9.789697858,0.000693922,0.002620946,-0.000561788,9.792448445,0.002768843
0.263656000,0.015617648,0.017781587,0.998180408,0.073599875,0.105060950,0.034368046,0.153156808,0.174377796,9.788805899,0.001284560,0.001833659,0.000599836,9.791556851,0.002317802
0.264694999,0.015631145,0.017769379,0.998125912,0.041422363,0.020418767,0.093205430,0.153289164,0.174258077,9.788271475,0.000722957,0.000356375,0.001626742,9.791022516,0.001815477
0.265639000,0.015772095,0.017683689,0.998068608,-0.036995884,-0.093388900,0.126126900,0.154671419,0.173417746,9.787709518,-0.000645700,-0.001629944,0.002201330,9.790467536,0.002814160
0.266633000,0.016046595,0.017575003,0.998007625,-0.123685598,-0.192092925,0.106439754,0.157363342,0.172351903,9.787111481,-0.002158721,-0.003352654,0.001857724,9.789893745,0.004399034
0.267621000,0.016411280,0.017485267,0.997999008,-0.189999729,-0.234182924,0.030723922,0.160939679,0.171471898,9.787026972,-0.003316121,-0.004087263,0.000536234,9.789851947,0.005290550
0.268617000,0.016826716,0.017431777,0.998081969,-0.222793505,-0.212506101,-0.058575884,0.165013710,0.170947337,9.787840537,-0.003888480,-0.003708931,-0.001022342,9.790723920,0.005470067
0.269651000,0.017214311,0.017434077,0.998233520,-0.207709238,-0.152205274,-0.104290262,0.168814727,0.170969888,9.789326746,-0.003625210,-0.002656483,-0.001820208,9.792274877,0.004848939
0.270597000,0.017531630,0.017483930,0.998392549,-0.143704817,-0.092482813,-0.077898331,0.171926560,0.171458779,9.790886287,-0.002508122,-0.001614130,-0.001359582,9.793896627,0.003277889
0.271587999,0.017743126,0.017545240,0.998522267,-0.050557427,-0.066590525,-0.004019674,0.174000622,0.172060031,9.792158394,-0.000882394,-0.001162224,-0.000070157,9.795215510,0.001460926
0.272588999,0.017828205,0.017581247,0.998635151,0.039734598,-0.081823789,0.065502599,0.174834965,0.172413139,9.793265402,0.000693500,-0.001428095,0.001143236,9.796343236,0.001956370
0.273570999,0.017794645,0.017554386,0.998767217,0.089435689,-0.111656480,0.094712645,0.174505858,0.172149723,9.794560530,0.001560947,-0.001948773,0.001653047,9.797627458,0.002994468
0.274604000,0.017735829,0.017440551,0.998939979,0.070583202,-0.117823452,0.084628284,0.173929070,0.171033379,9.796254746,0.001231909,-0.002056407,0.001477042,9.799291341,0.002815682
0.275552999,0.017751006,0.017248864,0.999108176,-0.006662605,-0.077425420,0.073973268,0.174077905,0.169153571,9.797904190,-0.000116284,-0.001351329,0.001291077,9.800910293,0.001872563
0.276543000,0.017864163,0.017006797,0.999205908,-0.095557347,-0.010318036,0.084713377,0.175187597,0.166779709,9.798862620,-0.001667790,-0.000180084,0.001478527,9.801847520,0.002236067
0.277538000,0.018008931,0.016746953,0.999171095,-0.162515044,0.035016902,0.092731364,0.176607280,0.164231505,9.798521216,-0.002836423,0.000611160,0.001618468,9.801488670,0.003322386
0.278529000,0.018082338,0.016450815,0.999019853,-0.206328318,0.027490413,0.061327443,0.177327161,0.161327386,9.797038037,-0.003601108,0.000479798,0.001070366,9.799970701,0.003787330
0.279567000,0.018013120,0.016128510,0.998831538,-0.230674148,-0.018723443,-0.014642070,0.176648362,0.158166653,9.795191302,-0.004026023,-0.000326786,-0.000255552,9.798060726,0.004047340
0.280509000,0.017802132,0.015845855,0.998685273,-0.229690522,-0.052911211,-0.098511040,0.174579282,0.155394752,9.793756934,-0.004008856,-0.000923475,-0.001719342,9.796545327,0.004458685
0.281502000,0.017514137,0.015677926,0.998622967,-0.196721435,-0.046719208,-0.151079327,0.171755013,0.153747933,9.793145918,-0.003433437,-0.000815404,-0.002636832,9.795858573,0.004405253
0.282491000,0.017245850,0.015651748,0.998640284,-0.131579891,-0.018994870,-0.161659315,0.169124014,0.153491216,9.793315741,-0.002296502,-0.000331523,-0.002821487,9.795978547,0.003653029
0.283554000,0.017078117,0.015776497,0.998719212,-0.037294984,0.002940792,-0.149636656,0.167479114,0.154714586,9.794089760,-0.000650920,0.000051326,-0.002611652,9.796743341,0.002692036
0.284523000,0.017045856,0.016040231,0.998824177,0.068003178,0.006719139,-0.139978856,0.167162747,0.157300928,9.795119113,0.001186879,0.000117271,-0.002443092,9.797808193,0.002718664
0.285470000,0.017098828,0.016387469,0.998901248,0.145209119,-0.018839346,-0.133266270,0.167682225,0.160706172,9.795874925,0.002534377,-0.000328809,-0.002325935,9.798627932,0.003455598
0.286459000,0.017164332,0.016734509,0.998913416,0.169011384,-0.079450771,-0.106715538,0.168324597,0.164109474,9.795994255,0.002949805,-0.001386678,-0.001862537,9.798814649,0.003754101
0.287451000,0.017213888,0.017047826,0.998880654,0.145262957,-0.146117195,-0.049966525,0.168810574,0.167182061,9.795672961,0.002535317,-0.002550226,-0.000872080,9.798553751,0.003700272
0.288437000,0.017271259,0.017343888,0.998860334,0.091248102,-0.166856200,0.011162633,0.169373188,0.170085436,9.795473699,0.001592580,-0.002912190,0.000194825,9.798414225,0.003324924
0.289473000,0.017352373,0.017651544,0.998895565,0.015421079,-0.121761322,0.037825048,0.170168649,0.173102515,9.795819194,0.000269149,-0.002125136,0.000660172,9.798826232,0.002241533
0.290420000,0.017451464,0.017938194,0.998994727,-0.068403944,-0.041347139,0.025722394,0.171140397,0.175913589,9.796791642,-0.001193874,-0.000721644,0.000448940,9.799865362,0.001465487
0.291409999,0.017588715,0.018186462,0.999149694,-0.129431829,0.033151928,0.002419190,0.172486376,0.178348272,9.798311348,-0.002259012,0.000578610,0.000042223,9.801452185,0.002332318
0.292401000,0.017782602,0.018365307,0.999328877,-0.151092544,0.088179111,-0.016461179,0.174387758,0.180102139,9.800068532,-0.002637062,0.001539016,-0.000287302,9.803274509,0.003066791
0.293400000,0.018041743,0.018492628,0.999503213,-0.146579340,0.126291424,-0.038129389,0.176929056,0.181350733,9.801778189,-0.002558292,0.002204201,-0.000665483,9.805052149,0.003441835
0.294440000,0.018304566,0.018541624,0.999622810,-0.124394976,0.140605077,-0.065617308,0.179506476,0.181831219,9.802951032,-0.002171102,0.002454022,-0.001145238,9.806280340,0.003470947
0.295383000,0.018512307,0.018466568,0.999679699,-0.077903695,0.115232006,-0.085263833,0.181543715,0.181095172,9.803508920,-0.001359676,0.002011178,-0.001488135,9.806861920,0.002847473
0.296372999,0.018625578,0.018227339,0.999685206,-0.016774235,0.044050284,-0.088981569,0.182654523,0.178749129,9.803562929,-0.000292766,0.000768822,-0.001553021,9.806893495,0.001757463
0.297368000,0.018634161,0.017832115,0.999652253,0.031827427,-0.044972729,-0.078547969,0.182738691,0.174873307,9.803239771,0.000555493,-0.000784922,-0.001370921,9.806502135,0.001674545
0.298355000,0.018541013,0.017370451,0.999602063,0.048405476,-0.106633492,-0.057448540,0.181825227,0.170345932,9.802747573,0.000844835,-0.001861106,-0.001002666,9.805913427,0.002276576
0.299390999,0.018390492,0.016904610,0.999557307,0.037727825,-0.123749465,-0.026549958,0.180349119,0.165777598,9.802308663,0.000658475,-0.002159836,-0.000463384,9.805369097,0.002305039
0.300332000,0.018243675,0.016420372,0.999513764,0.007168821,-0.112983726,-0.002164985,0.178909337,0.161028844,9.801881655,0.000125120,-0.001971938,-0.000037786,9.804836705,0.001976265
0.301322000,0.018143375,0.015834228,0.999447642,-0.041607421,-0.098938994,-0.005192807,0.177925725,0.155280727,9.801233218,-0.000726186,-0.001726811,-0.000090632,9.804077838,0.001875483
0.302322000,0.018111280,0.015189247,0.999350425,-0.093158245,-0.094320223,-0.023959525,0.177610986,0.148955633,9.800279846,-0.001625918,-0.001646198,-0.000418173,9.803020886,0.002351265
0.303315000,0.018125124,0.014595169,0.999240006,-0.119667135,-0.089558221,-0.030109884,0.177746749,0.143129719,9.799197001,-0.002088586,-0.001563086,-0.000525517,9.801854002,0.002661127
0.304347000,0.018162499,0.014133353,0.999151693,-0.092364885,-0.063079193,-0.020473465,0.178113267,0.138600848,9.798330952,-0.001612071,-0.001100940,-0.000357329,9.800929751,0.001984572
0.305294000,0.018182950,0.013895917,0.999137539,-0.009847723,-0.008280278,-0.010482424,0.178313830,0.136272392,9.798192145,-0.000171875,-0.000144518,-0.000182953,9.800761975,0.000289652
0.306279000,0.018120523,0.013891192,0.999216245,0.090229481,0.058781803,-0.002160593,0.177701624,0.136226053,9.798963993,0.001574802,0.001025936,-0.000037709,9.801521859,0.001879885
0.307271000,0.017936764,0.014056148,0.999343943,0.155135006,0.116684638,-0.004642290,0.175899564,0.137843728,9.800216277,0.002707617,0.002036531,-0.000081023,9.802763928,0.003388984
0.308266999,0.017644271,0.014318995,0.999460325,0.159793556,0.153766841,-0.045767304,0.173031192,0.140421368,9.801357594,0.002788924,0.002683738,-0.000798790,9.803890485,0.003952039
0.309291000,0.017328789,0.014603593,0.999506436,0.125515297,0.173766568,-0.132096827,0.169937370,0.143212330,9.801809795,0.002190655,0.003032799,-0.002305525,9.804328827,0.004394574
0.310255000,0.017050648,0.014872468,0.999493630,0.086859681,0.181674391,-0.227544010,0.167209742,0.145849088,9.801684207,0.001515987,0.003170816,-0.003971392,9.804195242,0.005303230
0.311234000,0.016879215,0.015091827,0.999486064,0.053184245,0.170913428,-0.287337482,0.165528557,0.148000262,9.801610007,0.000928240,0.002983002,-0.005014985,9.804124771,0.005908469
0.312238000,0.016820417,0.015294165,0.999534740,0.014093841,0.136062652,-0.281958878,0.164951939,0.149984525,9.802087359,0.000245984,0.002374741,-0.004921111,9.804622435,0.005469665
0.313224000,0.016838839,0.015495288,0.999635960,-0.026077792,0.087348126,-0.197654083,0.165132605,0.151956869,9.803079986,-0.000455143,0.001524512,-0.003449715,9.805648213,0.003798924
0.314253000,0.016857681,0.015705468,0.999749896,-0.042474456,0.046435740,-0.050669696,0.165317379,0.154018024,9.804197314,-0.000741319,0.000810457,-0.000884353,9.806800516,0.001410133
0.315206000,0.016818527,0.015877832,0.999824897,-0.018811714,0.025356954,0.111281328,0.164933407,0.155708346,9.804932824,-0.000328326,0.000442562,0.001942226,9.807556056,0.002018886
0.316192000,0.016705563,0.015985056,0.999837485,0.028633306,0.017922189,0.228183463,0.163825613,0.156759846,9.805056272,0.000499745,0.000312801,0.003982553,9.807677655,0.004025955
0.317177999,0.016540613,0.016009279,0.999758666,0.070572861,0.010122651,0.259123474,0.162208001,0.156997396,9.804283319,0.001231729,0.000176674,0.004522558,9.806881820,0.004690618
0.318173000,0.016369151,0.015993499,0.999567318,0.093618780,0.000767277,0.205473348,0.160526538,0.156842644,9.802406836,0.001633956,0.000013392,0.003586186,9.804975684,0.003940904
0.319209000,0.016260471,0.016027429,0.999271828,0.108751319,-0.004811293,0.108858034,0.159460750,0.157175386,9.799509076,0.001898069,-0.000083973,0.001899931,9.802066617,0.002686904
0.320159999,0.016267226,0.016167443,0.998923919,0.134093553,0.000943999,0.023018360,0.159526992,0.158548451,9.796097254,0.002340374,0.000016476,0.000401746,9.798678885,0.002374662
0.321149000,0.016362546,0.016368331,0.998574420,0.162596375,0.025289726,-0.030419318,0.160461763,0.160518488,9.792669832,0.002837842,0.000441389,-0.000530917,9.795299720,0.002920624
0.322140000,0.016466625,0.016530695,0.998251080,0.167684436,0.062732995,-0.058060594,0.161482432,0.162110739,9.789498954,0.002926646,0.001094897,-0.001013349,9.792172703,0.003284955
0.323131000,0.016509789,0.016587438,0.997974887,0.132161334,0.102524161,-0.065098651,0.161905725,0.162667197,9.786790429,0.002306650,0.001789384,-0.001136186,9.789481139,0.003132643
0.324165000,0.016477765,0.016557559,0.997757776,0.066326156,0.130496174,-0.052258104,0.161591670,0.162374190,9.784661289,0.001157610,0.002277588,-0.000912076,9.787342529,0.002712812
0.325116000,0.016415409,0.016505366,0.997631624,-0.005084148,0.136231109,-0.020747792,0.160980168,0.161862345,9.783424163,-0.000088735,0.002377681,-0.000362117,9.786087185,0.002406735
0.326107000,0.016382287,0.016488979,0.997606552,-0.068874888,0.121524379,0.028208341,0.160655355,0.161701643,9.783178289,-0.001202094,0.002121001,0.000492328,9.785833383,0.002487179
0.327094000,0.016403403,0.016536326,0.997678580,-0.117147118,0.099477969,0.087973453,0.160862432,0.162165957,9.783884642,-0.002044603,0.001736218,0.001535426,9.786550629,0.003090694
0.328085000,0.016460260,0.016632666,0.997830031,-0.134801298,0.083521299,0.136394933,0.161420008,0.163110739,9.785369876,-0.002352726,0.001457722,0.002380541,9.788060336,0.003650650
0.329126000,0.016525023,0.016728106,0.998035637,-0.114429839,0.076319739,0.136514470,0.162055113,0.164046683,9.787386183,-0.001997177,0.001332031,0.002382627,9.790102220,0.003382297
0.330067000,0.016586878,0.016778894,0.998272674,-0.070669010,0.071937270,0.064990193,0.162661703,0.164544742,9.789710723,-0.001233407,0.001255542,0.001134293,9.792444528,0.002093872
0.331069000,0.016652685,0.016789965,0.998530054,-0.029111380,0.061302960,-0.048280846,0.163307056,0.164653313,9.792234751,-0.000508089,0.001069938,-0.000842660,9.794980415,0.001453616
0.332049000,0.016739316,0.016807817,0.998784831,-0.001937155,0.041109256,-0.144287884,0.164156612,0.164828375,9.794733262,-0.000033810,0.000717492,-0.002518299,9.797495367,0.002618734
0.333044000,0.016882599,0.016877445,0.999062223,0.021595743,0.008677760,-0.183116108,0.165561742,0.165511198,9.797453544,0.000376917,0.000151455,-0.003195979,9.800250028,0.003221690
0.334077000,0.017116706,0.017000275,0.999365739,0.041810997,-0.046313234,-0.169764236,0.167857540,0.166715745,9.800430029,0.000729740,-0.000808318,-0.002962945,9.803285115,0.003156729
0.335023000,0.017473463,0.017175789,0.999698048,0.042586014,-0.121961571,-0.130397692,0.171356140,0.168436949,9.803688860,0.000743266,-0.002128631,-0.002275869,9.806632918,0.003203606
0.336054000,0.017907318,0.017397059,1.000001207,0.030841412,-0.182547629,-0.068607010,0.175610800,0.170606873,9.806661837,0.000538284,-0.003186057,-0.001197418,9.809717745,0.003445943
0.337005000,0.018362889,0.017626479,1.000250475,0.032000683,-0.176679835,0.012519684,0.180078428,0.172856710,9.809106322,0.000558517,-0.003083645,0.000218510,9.812281820,0.003141425
0.337997000,0.018752062,0.017774860,1.000436204,0.053370625,-0.094161391,0.091001660,0.183894907,0.174311833,9.810927701,0.000931493,-0.001643426,0.001588279,9.814199117,0.002468027
0.339033000,0.019034277,0.017805474,1.000580751,0.072290100,0.024906188,0.136806890,0.186662494,0.174612052,9.812345218,0.001261700,0.000434695,0.002387731,9.815673738,0.002735344
0.339979000,0.019183236,0.017734212,1.000682109,0.063987955,0.131530881,0.138379365,0.188123284,0.173913212,9.813339205,0.001116801,0.002295647,0.002415176,9.816682868,0.003514301
0.340981999,0.019203033,0.017584286,1.000717466,0.029751539,0.192651257,0.109460488,0.188317427,0.172442943,9.813685941,0.000519262,0.003362399,0.001910446,9.817007272,0.003901943
0.341962000,0.019112827,0.017378008,1.000663782,-0.005290790,0.197588354,0.059619248,0.187432800,0.170420039,9.813159481,-0.000092342,0.003448567,0.001040552,9.816428732,0.003603317
0.342953000,0.018939187,0.017121119,1.000530489,-0.006106593,0.157088846,0.000238211,0.185729981,0.167900822,9.811852319,-0.000106580,0.002741718,0.000004158,9.815046217,0.002743792
0.343989000,0.018718767,0.016866404,1.000344434,0.046664771,0.098900646,-0.047245879,0.183568397,0.165402924,9.810027742,0.000814454,0.001726142,-0.000824596,9.813139140,0.002079149
0.344935000,0.018455724,0.016662186,1.000111606,0.130131513,0.051197227,-0.071669817,0.180988822,0.163400229,9.807744484,0.002271223,0.000893560,-0.001250874,9.810775120,0.002742552
0.345938000,0.018160749,0.016551995,0.999847229,0.196398765,0.028715571,-0.083061263,0.178096113,0.162319619,9.805151831,0.003427805,0.000501181,-0.001449693,9.808112373,0.003755348
0.346917000,0.017855904,0.016529379,0.999533831,0.211006716,0.034049414,-0.100019455,0.175106604,0.162097836,9.802078442,0.003682762,0.000594274,-0.001745669,9.804982397,0.004118647
0.347908999,0.017605026,0.016577432,0.999187598,0.172171459,0.057710338,-0.136295840,0.172646324,0.162569071,9.798683057,0.003004959,0.001007235,-0.002378811,9.801552179,0.003962707
0.348944999,0.017409331,0.016656231,0.998845896,0.108587027,0.088834330,-0.175379142,0.170727219,0.163341825,9.795332103,0.001895201,0.001550452,-0.003060943,9.798181430,0.003919829
0.349897000,0.017276632,0.016725520,0.998593629,0.050195023,0.120701179,-0.169211745,0.169425886,0.164021325,9.792858215,0.000876068,0.002106633,-0.002953302,9.795697022,0.003731942
0.350883000,0.017206237,0.016773265,0.998451416,0.005131626,0.138606116,-0.105323933,0.168735544,0.164489536,9.791463579,0.000089564,0.002419133,-0.001838249,9.794298724,0.003039636
0.351880000,0.017176317,0.016811251,0.998367680,-0.030692501,0.129446447,-0.027653217,0.168442133,0.164862051,9.790642408,-0.000535685,0.002259267,-0.000482640,9.793479004,0.002371537
0.352870000,0.017153606,0.016849460,0.998270518,-0.058177784,0.097403675,0.017122785,0.168219405,0.165236754,9.789689575,-0.001015394,0.001700015,0.000298849,9.792528935,0.002002595
0.353902000,0.017118500,0.016904659,0.998105923,-0.070858806,0.068466447,0.017748740,0.167875140,0.165778070,9.788075449,-0.001236719,0.001194965,0.000309774,9.790918518,0.001747391
0.354847000,0.017092249,0.016987088,0.997919785,-0.057024959,0.071737237,-0.011901332,0.167617701,0.166586422,9.786250062,-0.000995273,0.001252051,-0.000207717,9.789102973,0.001612869
0.355837999,0.017112443,0.017085789,0.997823167,-0.007362526,0.104323074,-0.056601606,0.167815735,0.167554353,9.785302561,-0.000128500,0.001820781,-0.000987884,9.788175662,0.002075493
0.356830000,0.017203328,0.017162506,0.997897670,0.070466414,0.128419474,-0.097639680,0.168707015,0.168306691,9.786033181,0.001229871,0.002241343,-0.001704134,9.788934294,0.003072503
0.357820999,0.017362519,0.017203168,0.998105687,0.139339432,0.107290611,-0.118041344,0.170268149,0.168705452,9.788073134,0.002431932,0.001872574,-0.002060210,9.791007529,0.003696660
0.358857000,0.017583972,0.017220363,0.998378163,0.162942275,0.042477306,-0.113266461,0.172439861,0.168874069,9.790745215,0.002843879,0.000741369,-0.001976873,9.793719713,0.003541935
0.359802999,0.017864589,0.017230954,0.998676786,0.140215680,-0.034676395,-0.091359220,0.175191769,0.168977937,9.793673708,0.002447225,-0.000605217,-0.001594519,9.796697933,0.002982900
0.360801999,0.018143664,0.017235794,0.998940616,0.090450391,-0.098030977,-0.073515534,0.177928564,0.169025400,9.796260992,0.001578657,-0.001710963,-0.001283088,9.799334548,0.002658170
0.361786000,0.018365223,0.017219591,0.999138964,0.033754524,-0.134461358,-0.080672644,0.180101310,0.168866503,9.798206125,0.000589128,-0.002346793,-0.001408003,9.801316016,0.002799461
0.362777000,0.018485974,0.017181566,0.999265145,-0.018703626,-0.142480701,-0.121330068,0.181285477,0.168493606,9.799443532,-0.000326440,-0.002486757,-0.002117609,9.802568441,0.003282498
0.363812000,0.018502369,0.017132761,0.999355539,-0.062213320,-0.132231697,-0.182223603,0.181446253,0.168014993,9.800329994,-0.001085827,-0.002307878,-0.003180402,9.803449381,0.004076798
0.364761000,0.018442887,0.017062643,0.999435197,-0.093293332,-0.109257996,-0.236201674,0.180862936,0.167327365,9.801111174,-0.001628276,-0.001906912,-0.004122497,9.804207775,0.004825202
0.365754000,0.018365616,0.016951850,0.999520763,-0.115340836,-0.058924451,-0.257108569,0.180105169,0.166240857,9.801950295,-0.002013077,-0.001028426,-0.004487391,9.805014201,0.005024621
0.366746000,0.018337367,0.016817984,0.999609295,-0.126062021,0.043443359,-0.229736134,0.179828144,0.164928086,9.802818494,-0.002200197,0.000758230,-0.004009652,9.805854876,0.004636064
0.367733000,0.018379906,0.016671758,0.999695423,-0.117971770,0.191931874,-0.161145002,0.180245302,0.163494100,9.803663115,-0.002058996,0.003349843,-0.002812511,9.806682883,0.004834370
0.368769000,0.018460555,0.016516627,0.999770066,-0.088044398,0.330071628,-0.076491959,0.181036205,0.161972778,9.804395120,-0.001536665,0.005760837,-0.001335037,9.807403987,0.006109902
0.369715000,0.018523010,0.016346543,0.999834061,-0.036005698,0.389764935,-0.002375923,0.181648680,0.160304822,9.805022695,-0.000628418,0.006802681,-0.000041468,9.808015290,0.006831772
0.370712999,0.018538496,0.016186225,0.999886015,0.031383388,0.343549073,0.050065808,0.181800542,0.158732640,9.805532193,0.000547743,0.005996062,0.000873813,9.808501877,0.006084105
0.371698000,0.018512877,0.016067607,0.999928930,0.102333844,0.214354530,0.079355255,0.181549301,0.157569396,9.805953043,0.001786063,0.003741192,0.001385010,9.808899192,0.004370903
0.372689000,0.018460772,0.015997234,0.999963480,0.159127891,0.045664731,0.080590785,0.181038327,0.156879274,9.806291857,0.002777306,0.000797000,0.001406575,9.809217398,0.003213579
0.373725000,0.018403122,0.015946383,0.999983781,0.187216923,-0.111321494,0.048091438,0.180472979,0.156380599,9.806490950,0.003267552,-0.001942927,0.000839354,9.809398052,0.003893119
0.374674000,0.018358133,0.015880566,0.999982152,0.181926966,-0.199795574,-0.009080441,0.180031782,0.155735153,9.806474967,0.003175225,-0.003487091,-0.000158484,9.809363698,0.004718789
0.375663000,0.018343422,0.015812953,0.999980033,0.144303024,-0.184751123,-0.062205482,0.179887518,0.155072093,9.806454188,0.002518563,-0.003224515,-0.001085690,9.809329774,0.004233129
0.376657000,0.018357073,0.015788993,1.000045197,0.083641134,-0.076520473,-0.086643249,0.180021386,0.154837128,9.807093232,0.001459813,-0.001335534,-0.001512210,9.809967375,0.002490278
0.377645000,0.018392613,0.015834733,1.000223382,0.005948711,0.068831429,-0.081200190,0.180369917,0.155285688,9.808840632,0.000103825,0.001201335,-0.001417211,9.811727753,0.001860772
0.378681000,0.018438893,0.015917837,1.000482724,-0.079861492,0.183093354,-0.059250109,0.180823775,0.156100652,9.811383907,-0.001393846,0.003195582,-0.001034109,9.814291559,0.003636473
0.379627000,0.018461936,0.015972719,1.000729177,-0.151014149,0.227192447,-0.033232048,0.181049746,0.156638863,9.813800783,-0.002635694,0.003965256,-0.000580009,9.816720458,0.004796514
0.380619000,0.018427680,0.015960969,1.000918839,-0.190565765,0.211753160,-0.001567362,0.180713808,0.156523641,9.815660736,-0.003326000,0.003695790,-0.000027356,9.818571832,0.004972111
0.381610000,0.018333414,0.015879880,1.001041432,-0.198830307,0.181143790,0.035478398,0.179789373,0.155728426,9.816862958,-0.003470244,0.003161556,0.000619215,9.819744086,0.004735129
0.382601000,0.018194525,0.015752980,1.001143103,-0.190182403,0.157168850,0.051440712,0.178427336,0.154483961,9.817860008,-0.003319309,0.002743114,0.000897810,9.820696347,0.004398699
0.383638000,0.018042547,0.015611670,1.001241627,-0.174812570,0.123986848,0.017484846,0.176936940,0.153098184,9.818826205,-0.003051055,0.002163979,0.000305168,9.821613603,0.003752981
0.384583000,0.017935854,0.015508678,1.001324298,-0.150525972,0.064243056,-0.060096581,0.175890641,0.152088178,9.819636930,-0.002627174,0.001121253,-0.001048883,9.822389616,0.003042927
0.385576000,0.017921526,0.015503700,1.001373627,-0.112257212,-0.008802444,-0.133555055,0.175750136,0.152039361,9.820120683,-0.001959258,-0.000153632,-0.002330975,9.822869963,0.003048892
0.386566000,0.018000939,0.015608127,1.001379182,-0.048832536,-0.069279686,-0.157642782,0.176528904,0.153063442,9.820175158,-0.000852289,-0.001209159,-0.002751386,9.822954291,0.003123873
0.387557000,0.018166759,0.015793265,1.001316674,0.043417186,-0.115231670,-0.130479246,0.178155050,0.154879018,9.819562158,0.000757773,-0.002011172,-0.002277292,9.822399285,0.003131309
0.388593000,0.018394185,0.016006449,1.001146772,0.141267821,-0.156823203,-0.074675135,0.180385339,0.156969641,9.817895991,0.002465589,-0.002737081,-0.001303327,9.820807504,0.003907608
0.389540000,0.018607332,0.016180189,1.000840755,0.201291665,-0.202673778,-0.020713920,0.182475592,0.158673451,9.814894990,0.003513202,-0.003537325,-0.000361526,9.817873409,0.004998596
0.390531000,0.018724996,0.016284349,1.000399641,0.192216516,-0.256236613,0.002673980,0.183629485,0.159694909,9.810569137,0.003354811,-0.004472173,0.000046670,9.813586962,0.005590820
0.391600000,0.018666569,0.016308568,0.999900318,0.122675650,-0.312155664,-0.010184123,0.183056504,0.159932418,9.805672454,0.002141094,-0.005448144,-0.000177746,9.808684944,0.005856462
0.392513000,0.018422995,0.016255967,0.999429502,0.027782183,-0.350467950,-0.044127107,0.180667863,0.159416581,9.801055323,0.000484891,-0.006116820,-0.000770163,9.804016522,0.006184153
0.393550000,0.018038977,0.016126512,0.999025269,-0.050806932,-0.330816358,-0.082176499,0.176901937,0.158147056,9.797091158,-0.000886748,-0.005773835,-0.001434250,9.799964282,0.006015028
0.394495000,0.017627461,0.015947104,0.998765895,-0.087165914,-0.227154836,-0.118039981,0.172866343,0.156387666,9.794547560,-0.001521332,-0.003964600,-0.002060186,9.797321153,0.004719838
0.395487000,0.017262013,0.015743970,0.998677732,-0.084783725,-0.067516610,-0.137763634,0.169282522,0.154395599,9.793682979,-0.001479755,-0.001178387,-0.002404429,9.796362634,0.003059338
0.396478000,0.017030449,0.015566420,0.998789235,-0.060972068,0.087378405,-0.120569013,0.167011657,0.152654435,9.794776448,-0.001064163,0.001525041,-0.002104326,9.797389548,0.002808270
0.397472000,0.016943760,0.015430774,0.999054525,-0.036646370,0.188832998,-0.065865122,0.166161528,0.151324204,9.797378059,-0.000639600,0.003295758,-0.001149563,9.799955382,0.003548606
0.398506000,0.016986676,0.015322653,0.999357989,-0.030634914,0.211495891,0.014085917,0.166582382,0.150263892,9.800354022,-0.000534680,0.003691300,0.000245846,9.802921395,0.003737916
0.399452000,0.017106951,0.015186853,0.999579984,-0.048818219,0.154622525,0.108594649,0.167761884,0.148932151,9.802531054,-0.000852039,0.002698672,0.001895334,9.805097648,0.003406038
0.400458000,0.017240555,0.014972527,0.999673817,-0.069914170,0.052232962,0.204086244,0.169072088,0.146830329,9.803451236,-0.001220232,0.000911637,0.003561977,9.806008395,0.003873981
0.401434000,0.017344162,0.014679041,0.999696351,-0.054761868,-0.042385720,0.271177799,0.170088126,0.143952219,9.803672223,-0.000955775,-0.000739770,0.004732945,9.806204224,0.004884827
0.402426000,0.017402537,0.014350385,0.999716182,0.000762711,-0.098828904,0.269686699,0.170660590,0.140729199,9.803866693,0.000013312,-0.001724890,0.004706921,9.806361807,0.005013036
0.403461000,0.017403368,0.014078513,0.999733202,0.060265757,-0.128897280,0.186874747,0.170668734,0.138063051,9.804033606,0.001051836,-0.002249682,0.003261580,9.806490920,0.004099430
0.404408000,0.017372340,0.013918789,0.999708080,0.102298550,-0.157339737,0.062455241,0.170364462,0.136496692,9.803787242,0.001785447,-0.002746096,0.001090050,9.806217399,0.003452111
0.405399000,0.017352080,0.013879172,0.999628193,0.127983049,-0.185365438,-0.042574599,0.170165780,0.136108183,9.803003819,0.002233726,-0.003235237,-0.000743067,9.805425320,0.004001055
0.406390000,0.017363956,0.013904963,0.999536944,0.138072118,-0.191120729,-0.090530895,0.170282237,0.136361103,9.802108973,0.002409813,-0.003335686,-0.001580062,9.804536231,0.004408015
0.407385000,0.017406062,0.013934157,0.999508262,0.135813802,-0.159520194,-0.081858836,0.170695161,0.136647398,9.801827700,0.002370398,-0.002784153,-0.001428706,9.804266195,0.003925748
0.408421000,0.017470208,0.013935996,0.999592103,0.125083938,-0.115378745,-0.055383489,0.171324215,0.136665432,9.802649893,0.002183127,-0.002013739,-0.000966624,9.805099405,0.003123387
0.409366000,0.017548810,0.013893758,0.999776727,0.103720650,-0.104187123,-0.061641291,0.172095041,0.136251219,9.804460440,0.001810267,-0.001818408,-0.001075843,9.806917233,0.002782286
0.410358000,0.017629868,0.013797180,1.000014024,0.069807157,-0.133791059,-0.116630875,0.172889944,0.135304114,9.806787525,0.001218365,-0.002335094,-0.002035593,9.809244604,0.003328771
0.411346000,0.017689296,0.013648912,1.000271262,0.024716629,-0.161102057,-0.193887249,0.173472738,0.133850104,9.809310172,0.000431387,-0.002811761,-0.003383971,9.811756963,0.004420787
0.412390000,0.017689794,0.013479788,1.000515299,-0.034444440,-0.140010804,-0.253760487,0.173477623,0.132191567,9.811703355,-0.000601169,-0.002443650,-0.004428956,9.814127155,0.005093965
0.413373999,0.017603495,0.013356197,1.000688250,-0.109318383,-0.065218709,-0.279957980,0.172631317,0.130979547,9.813399422,-0.001907966,-0.001138281,-0.004886189,9.815791635,0.005367574
0.414319999,0.017430888,0.013332591,1.000781249,-0.178103834,0.024998613,-0.279127806,0.170938622,0.130748053,9.814311433,-0.003108498,0.000436308,-0.004871699,9.816670718,0.005795393
0.415311000,0.017211377,0.013414509,1.000865469,-0.205861166,0.072366759,-0.256711334,0.168785954,0.131551392,9.815137351,-0.003592955,0.001263038,-0.004480458,9.817469923,0.005880399
0.416307000,0.017003223,0.013559217,1.001021587,-0.180161729,0.042054188,-0.210920915,0.166744659,0.132970499,9.816668348,-0.003144415,0.000733984,-0.003681264,9.818984795,0.004896712
0.417294000,0.016858052,0.013713647,1.001240431,-0.113204241,-0.040578846,-0.133927852,0.165321020,0.134484939,9.818814473,-0.001975787,-0.000708234,-0.002337482,9.821126966,0.003141521
0.418332000,0.016776981,0.013849332,1.001464801,-0.029864019,-0.102723405,-0.024823988,0.164525980,0.135815550,9.821014788,-0.000521225,-0.001792862,-0.000433260,9.823331722,0.001916701
0.419276000,0.016722322,0.013956226,1.001639758,0.032076593,-0.089826532,0.085571080,0.163989957,0.136863824,9.822730534,0.000559842,-0.001567769,0.001493497,9.825052649,0.002236483
0.420266999,0.016643327,0.014055061,1.001720916,0.041090604,-0.000168272,0.136811003,0.163215279,0.137833062,9.823526418,0.000717166,-0.000002937,0.002387802,9.825848995,0.002493178
0.421258000,0.016510044,0.014188806,1.001668242,-0.000113963,0.127591774,0.098820627,0.161908221,0.139144650,9.823009868,-0.000001989,0.002226897,0.001724745,9.825329429,0.002816703
0.422250000,0.016324683,0.014370426,1.001481573,-0.064044602,0.230805919,0.004246330,0.160090450,0.140925743,9.821179268,-0.001117789,0.004028323,0.000074112,9.823494858,0.004181188
0.423286000,0.016106937,0.014598660,1.001202379,-0.127355263,0.255035996,-0.080995478,0.157955097,0.143163948,9.818441308,-0.002222769,0.004451218,-0.001413638,9.820755340,0.005172273
0.424232000,0.015881298,0.014891338,1.000852205,-0.178678453,0.199346051,-0.109314412,0.155742331,0.146034137,9.815007278,-0.003118527,0.003479245,-0.001907896,9.817329042,0.005046823
0.425223000,0.015688197,0.015225313,1.000493871,-0.209004268,0.123073734,-0.079071417,0.153848656,0.149309314,9.811493222,-0.003647813,0.002148042,-0.001380057,9.813835230,0.004452547
0.426217000,0.015537024,0.015572184,1.000198289,-0.200882018,0.081725366,-0.019976273,0.152366158,0.152710958,9.808594549,-0.003506053,0.001426377,-0.000348652,9.810966472,0.003801120
0.427238000,0.015422906,0.015910309,1.000022740,-0.141561419,0.082076892,0.031141402,0.151247043,0.156026830,9.806872999,-0.002470713,0.001432512,0.000543520,9.809280201,0.002907220
0.428242000,0.015350423,0.016209161,0.999947976,-0.048297450,0.097240746,0.063271731,0.150536225,0.158957572,9.806139817,-0.000842950,0.001697171,0.001104300,9.808583322,0.002193270
0.429188000,0.015350081,0.016440765,0.999898518,0.030372232,0.097181693,0.085766263,0.150532869,0.161228829,9.805654800,0.000530095,0.001696141,0.001496904,9.808135447,0.002323492
0.430179000,0.015449598,0.016609215,0.999834161,0.056375295,0.067121454,0.099370934,0.151508802,0.162880754,9.805023675,0.000983935,0.001171490,0.001734350,9.807546805,0.002312680
0.431170000,0.015635783,0.016742287,0.999777018,0.034784019,0.010959199,0.100461721,0.153334647,0.164185753,9.804463294,0.000607096,0.000191274,0.001753388,9.807036706,0.001865347
0.432162000,0.015871897,0.016867439,0.999778193,-0.011861875,-0.053308196,0.100828066,0.155650137,0.165413069,9.804474814,-0.000207029,-0.000930404,0.001759782,9.807105324,0.002001335
0.433198000,0.016132619,0.016966236,0.999853317,-0.076300807,-0.106887065,0.112033173,0.158206950,0.166381941,9.805211527,-0.001331700,-0.001865531,0.001955348,9.807899137,0.003012809
0.434144000,0.016407171,0.016985471,0.999951095,-0.154493839,-0.136875436,0.115238607,0.160899383,0.166570567,9.806170409,-0.002696426,-0.002388927,0.002011293,9.808904753,0.004125892
0.435213999,0.016672468,0.016906460,0.999997941,-0.216575548,-0.135649741,0.082945943,0.163501059,0.165795739,9.806629812,-0.003779956,-0.002367535,0.001447680,9.809393921,0.004689250
0.436127000,0.016890489,0.016789164,0.999969930,-0.217042848,-0.099589102,0.019444115,0.165639115,0.164645455,9.806355117,-0.003788112,-0.001738158,0.000339364,9.809135799,0.004181645
0.437118000,0.017019929,0.016697601,0.999879341,-0.147701904,-0.030525099,-0.047688946,0.166908489,0.163747532,9.805466735,-0.002577885,-0.000532763,-0.000832329,9.808254156,0.002760815
0.438154000,0.017070047,0.016636063,0.999745184,-0.051192395,0.058920149,-0.104220018,0.167399978,0.163144052,9.804151105,-0.000893476,0.001028351,-0.001818982,9.806937219,0.002272554
0.439100000,0.017087912,0.016591861,0.999594703,0.026792021,0.144699737,-0.150736704,0.167575167,0.162710571,9.802675395,0.000467609,0.002525487,-0.002630852,9.805457718,0.003676700
0.440091000,0.017113295,0.016586591,0.999486965,0.058750030,0.190322533,-0.180928931,0.167824093,0.162658896,9.801618845,0.001025381,0.003321755,-0.003157806,9.804404869,0.004696509
0.441080000,0.017162501,0.016622473,0.999462323,0.031202286,0.168357834,-0.180627346,0.168306644,0.163010777,9.801377194,0.000544583,0.002938399,-0.003152542,9.804177403,0.004343878
0.442077000,0.017226876,0.016660079,0.999539590,-0.043053109,0.089049228,-0.142858878,0.168937943,0.163379562,9.802134920,-0.000751419,0.001554202,-0.002493358,9.804951907,0.003032657
0.443110000,0.017319269,0.016631179,0.999697933,-0.115315109,-0.003827224,-0.079554737,0.169844006,0.163096151,9.803687737,-0.002012628,-0.000066798,-0.001388492,9.806515211,0.002446026
0.444056000,0.017452772,0.016471552,0.999897424,-0.139474496,-0.066528641,-0.015373184,0.171153226,0.161530748,9.805644070,-0.002434289,-0.001161144,-0.000268313,9.808467833,0.002710352
0.445047000,0.017605143,0.016176596,1.000102165,-0.110177398,-0.085925519,0.026134005,0.172647477,0.158638217,9.807651901,-0.001922958,-0.001499683,0.000456124,9.810454069,0.002480901
0.446038000,0.017729210,0.015792124,1.000281604,-0.048733220,-0.071998462,0.037567813,0.173864162,0.154867833,9.809411592,-0.000850555,-0.001256610,0.000655682,9.812174508,0.001653007
0.447030000,0.017816153,0.015371881,1.000436012,0.025630163,-0.049883537,0.037732638,0.174716773,0.150746654,9.810925813,0.000447331,-0.000870632,0.000658559,9.813639275,0.001179748
0.448066000,0.017890974,0.014967294,1.000581516,0.095440961,-0.047532149,0.043587480,0.175450520,0.146779009,9.812352722,0.001665759,-0.000829592,0.000760745,9.815018742,0.002010400
0.449012000,0.017959750,0.014628094,1.000738316,0.127605468,-0.063781597,0.045529030,0.176124982,0.143452602,9.813890405,0.002227136,-0.001113199,0.000794631,9.816518911,0.002613577
0.450004000,0.018003473,0.014380604,1.000930571,0.112794533,-0.060839742,0.028293742,0.176553755,0.141025551,9.815775782,0.001968636,-0.001061854,0.000493819,9.818376324,0.002290615
0.450995000,0.018015458,0.014215994,1.001148592,0.086060517,-0.012398603,0.001991766,0.176671289,0.139411280,9.817913839,0.001502039,-0.000216396,0.000034763,9.820492880,0.001517945
0.451992000,0.018031423,0.014136968,1.001341478,0.075289711,0.057927910,-0.007021918,0.176827852,0.138636297,9.819805406,0.001314053,0.001011033,-0.000122556,9.822375799,0.001662511
0.453024000,0.018112524,0.014182263,1.001428556,0.077172972,0.109146796,0.008208572,0.177623182,0.139080485,9.820659350,0.001346922,0.001904971,0.000143267,9.823250147,0.002337443
0.453971000,0.018290212,0.014363400,1.001387251,0.076485157,0.130254403,0.029736541,0.179365704,0.140856834,9.820254285,0.001334918,0.002273368,0.000519001,9.822902164,0.002686926
0.454966000,0.018552378,0.014636081,1.001282345,0.060581464,0.132657960,0.039126549,0.181936678,0.143530923,9.819225504,0.001057346,0.002315318,0.000682887,9.821959661,0.002635339
0.455954000,0.018847279,0.014890383,1.001216237,0.023235109,0.114156492,0.026735930,0.184828665,0.146024778,9.818577206,0.000405529,0.001992407,0.000466630,9.821402305,0.002086116
0.456942000,0.019113899,0.015043058,1.001239979,-0.020581257,0.063446730,0.000288421,0.187443316,0.147522004,9.818810038,-0.000359211,0.001107354,0.000005034,9.821706995,0.001164170
0.457978000,0.019282990,0.015082240,1.001334934,-0.034153379,-0.016271424,-0.016929511,0.189101531,0.147906247,9.819741233,-0.000596089,-0.000283990,-0.000295476,9.822675478,0.000723380
0.458924000,0.019291609,0.015070688,1.001449866,0.009072679,-0.098361760,-0.017984061,0.189186056,0.147792961,9.820868329,0.000158348,-0.001716737,-0.000313881,9.823802159,0.001752364
0.459921000,0.019135709,0.015095768,1.001534383,0.086334705,-0.138314247,-0.013710331,0.187657199,0.148038914,9.821697161,0.001506825,-0.002414039,-0.000239290,9.824605125,0.002855760
0.460907000,0.018861080,0.015183563,1.001539973,0.140738145,-0.102304250,-0.016051693,0.184964009,0.148899886,9.821751979,0.002456344,-0.001785546,-0.000280155,9.824621866,0.003049637
0.461901000,0.018556920,0.015319179,1.001448619,0.140072569,-0.004607516,-0.035292707,0.181981220,0.150229826,9.820856102,0.002444728,-0.000080416,-0.000615974,9.823690790,0.002522416
0.462934000,0.018326663,0.015496209,1.001263465,0.103999242,0.099768490,-0.084635645,0.179723166,0.151965899,9.819040357,0.001815129,0.001741289,-0.001477171,9.821860698,0.002916987
0.463881000,0.018193326,0.015705839,1.000994979,0.076878078,0.162828267,-0.165018931,0.178415580,0.154021668,9.816407413,0.001341776,0.002841889,-0.002880124,9.819236696,0.004262841
0.464871000,0.018088927,0.015897541,1.000680763,0.073242597,0.171406701,-0.248650983,0.177391778,0.155901620,9.813326008,0.001278324,0.002991611,-0.004339778,9.816167302,0.005423793
0.465864000,0.017925907,0.016024870,1.000352251,0.079012841,0.137529269,-0.295923144,0.175793092,0.157150288,9.810104404,0.001379034,0.002400339,-0.005164833,9.812937778,0.005859937
0.466854000,0.017705779,0.016051545,1.000044228,0.091159835,0.074944504,-0.277170807,0.173634376,0.157411880,9.807083729,0.001591039,0.001308028,-0.004837543,9.809883723,0.005257772
0.467890000,0.017478667,0.015985593,0.999718010,0.121095516,-0.004288585,-0.201250523,0.171407169,0.156765119,9.803884619,0.002113515,-0.000074850,-0.003512484,9.806635985,0.004100012
0.468836000,0.017301720,0.015872528,0.999353630,0.168334246,-0.088351525,-0.119670682,0.169671914,0.155656323,9.800311280,0.002937987,-0.001542025,-0.002088647,9.803015793,0.003920721
0.469831000,0.017179535,0.015768528,0.998927282,0.206919014,-0.167724922,-0.084149018,0.168473689,0.154636432,9.796130226,0.003611418,-0.002927352,-0.001468677,9.798799070,0.004875320
0.470819000,0.017105458,0.015695064,0.998417127,0.214418098,-0.232961074,-0.097543687,0.167747238,0.153915996,9.791127321,0.003742302,-0.004065938,-0.001702458,9.793773710,0.005782304
0.471810000,0.017106292,0.015654267,0.997865263,0.193982422,-0.276390851,-0.115630336,0.167755415,0.153515913,9.785715383,0.003385632,-0.004823930,-0.002018130,9.788357092,0.006229419
0.472846000,0.017193465,0.015641386,0.997403018,0.155132055,-0.289819390,-0.098899156,0.168610297,0.153389598,9.781182311,0.002707565,-0.005058303,-0.001726116,9.783837959,0.005991395
0.473792000,0.017312410,0.015649076,0.997095401,0.100315735,-0.277567983,-0.039974868,0.169776748,0.153465009,9.778165615,0.001750840,-0.004844475,-0.000697693,9.780843442,0.005198188
0.474783000,0.017403770,0.015667016,0.996975580,0.028052641,-0.263394624,0.040090021,0.170672682,0.153640940,9.776990571,0.000489611,-0.004597103,0.000699703,9.779687078,0.004675753
0.475775000,0.017482385,0.015697734,0.997029167,-0.056350462,-0.262154013,0.104515322,0.171443627,0.153942183,9.777516080,-0.000983501,-0.004575451,0.001824136,9.780230662,0.005022897
0.476766999,0.017604002,0.015770398,0.997245170,-0.133965164,-0.267502815,0.124019705,0.172636288,0.154654771,9.779634350,-0.002338133,-0.004668805,0.002164552,9.782380559,0.005652424
0.477801999,0.017803136,0.015914093,0.997588672,-0.174209610,-0.255395710,0.100938365,0.174589124,0.156063943,9.783002952,-0.003040531,-0.004457496,0.001761707,9.785805234,0.005676065
0.478748999,0.018064385,0.016144759,0.997989415,-0.157676414,-0.208781064,0.066803306,0.177151101,0.158326004,9.786932893,-0.002751973,-0.003643917,0.001165938,9.789816397,0.004712844
0.479743000,0.018343237,0.016460053,0.998372857,-0.099376142,-0.142534211,0.041977726,0.179885709,0.161417975,9.790693175,-0.001734441,-0.002487691,0.000732650,9.793675892,0.003119883
0.480730999,0.018596796,0.016832909,0.998701230,-0.025660967,-0.090118989,0.015049006,0.182372266,0.165074449,9.793913415,-0.000447868,-0.001572873,0.000262655,9.797002052,0.001656352
0.481722000,0.018789398,0.017212568,0.998978859,0.036401674,-0.079519324,-0.038917262,0.184261054,0.168797627,9.796636028,0.000635329,-0.001387874,-0.000679234,9.799822562,0.001670687
0.482758000,0.018887590,0.017507171,0.999202673,0.061571576,-0.105519302,-0.124379314,0.185223983,0.171686703,9.798830892,0.001074627,-0.001841659,-0.002170829,9.802085038,0.003042865
0.483704000,0.018877707,0.017624631,0.999324799,0.041427355,-0.136274740,-0.203929961,0.185127067,0.172838586,9.800028536,0.000723044,-0.002378443,-0.003559249,9.803300695,0.004341433
0.484705000,0.018769471,0.017564566,0.999321390,-0.008548400,-0.143984124,-0.232106134,0.184065633,0.172249547,9.799995105,-0.000149198,-0.002512997,-0.004051016,9.803236921,0.004769502
0.485687000,0.018617780,0.017359839,0.999222324,-0.061158124,-0.119226947,-0.204475462,0.182578050,0.170241869,9.799023599,-0.001067411,-0.002080903,-0.003568770,9.802202841,0.004266807
0.486677999,0.018528529,0.017051492,0.999111139,-0.108171001,-0.066176720,-0.146049947,0.181702801,0.167218017,9.797933252,-0.001887940,-0.001155002,-0.002549052,9.801044525,0.003375798
0.487713999,0.018598578,0.016689913,0.999058397,-0.143756121,-0.000553846,-0.071997583,0.182389741,0.163672139,9.797416027,-0.002509018,-0.000009666,-0.001256595,9.800480366,0.002806117
0.488659999,0.018854378,0.016326744,0.999096464,-0.138997912,0.050696228,0.018600879,0.184898287,0.160110665,9.797789338,-0.002425971,0.000884816,0.000324647,9.800841735,0.002602620
0.489652000,0.019221712,0.016035009,0.999211050,-0.070225768,0.068526566,0.114697345,0.188500600,0.157249722,9.798913039,-0.001225671,0.001196014,0.002001846,9.801987385,0.002634408
0.490643000,0.019572013,0.015837217,0.999355167,0.034232851,0.049736526,0.173240095,0.191935877,0.155310046,9.800326344,0.000597476,0.000868066,0.003023610,9.803435982,0.003201989
0.491634000,0.019805295,0.015706109,0.999509322,0.114441760,0.010772075,0.160275787,0.194223597,0.154024312,9.801838095,0.001997386,0.000188008,0.002797340,9.804972021,0.003442384
0.492670000,0.019857353,0.015597817,0.999661362,0.145398363,-0.019661745,0.086379118,0.194734112,0.152962332,9.803329091,0.002537680,-0.000343162,0.001507600,9.806456043,0.002971605
0.493616000,0.019731254,0.015496988,0.999795232,0.146419719,-0.026205920,-0.006664578,0.193497498,0.151973542,9.804641909,0.002555506,-0.000457380,-0.000116319,9.807728596,0.002598719
0.494608000,0.019475045,0.015427487,0.999929561,0.140977100,-0.019793298,-0.077877611,0.190984946,0.151291967,9.805959233,0.002460515,-0.000345458,-0.001359221,9.808985726,0.002832129
0.495602000,0.019153844,0.015428156,1.000070163,0.124912724,-0.019454315,-0.102688015,0.187835044,0.151298523,9.807338062,0.002180138,-0.000339542,-0.001792244,9.810303415,0.002842610
0.496593000,0.018801857,0.015504674,1.000218291,0.086879134,-0.019349312,-0.083204873,0.184383227,0.152048909,9.808790708,0.001516327,-0.000337709,-0.001452199,9.811701749,0.002126541
0.497630000,0.018487946,0.015626128,1.000340370,0.039427716,-0.002484785,-0.048348460,0.181304814,0.153239967,9.809987889,0.000688143,-0.000043368,-0.000843840,9.812859741,0.001089719
0.498573000,0.018245781,0.015726410,1.000388048,0.001731898,0.027957302,-0.015178902,0.178929988,0.154223397,9.810455448,0.000030227,0.000487947,-0.000264922,9.813298981,0.000556048
0.499567000,0.018079336,0.015749899,1.000315639,-0.027025761,0.045381300,0.019487346,0.177297720,0.154453743,9.809745362,-0.000471689,0.000792053,0.000340118,9.812563095,0.000982608
0.500555000,0.017954409,0.015697479,1.000112447,-0.051712278,0.025031015,0.056939807,0.176072607,0.153939687,9.807752724,-0.000902550,0.000436874,0.000993787,9.810540886,0.001411760
0.501550000,0.017832587,0.015602500,0.999793087,-0.055762917,-0.024220247,0.083220243,0.174877941,0.153008259,9.804620881,-0.000973246,-0.000422723,0.001452467,9.807373983,0.001798768
0.502582000,0.017697630,0.015504140,0.999405335,-0.020760501,-0.064518861,0.090709701,0.173554467,0.152043672,9.800818328,-0.000362339,-0.001126067,0.001583183,9.803533972,0.001976306
0.503529000,0.017567703,0.015431104,0.998973453,0.035436776,-0.064821646,0.084759846,0.172280310,0.151327437,9.796583014,0.000618488,-0.001131351,0.001479338,9.799266261,0.001962377
0.504520000,0.017501840,0.015406147,0.998544059,0.071978375,-0.022872819,0.059219982,0.171634417,0.151082692,9.792372096,0.001256260,-0.000399206,0.001033584,9.795041379,0.001675067
0.505516999,0.017512952,0.015411818,0.998123828,0.066769212,0.029299505,0.003417345,0.171743386,0.151138303,9.788251037,0.001165343,0.000511373,0.000059644,9.790924213,0.001274003
0.506502000,0.017573856,0.015435781,0.997787058,0.027909420,0.040269054,-0.071050100,0.172340658,0.151373304,9.784948455,0.000487111,0.000702828,-0.001240058,9.787636663,0.001506316
0.507538000,0.017647346,0.015495346,0.997591142,-0.017513804,-0.016100202,-0.126877546,0.173061347,0.151957432,9.783027172,-0.000305674,-0.000281002,-0.002214431,9.785737680,0.002253021
0.508484000,0.017698732,0.015601789,0.997516353,-0.043704882,-0.117711142,-0.137894988,0.173565272,0.153001287,9.782293745,-0.000762794,-0.002054447,-0.002406722,9.785029648,0.003254983
0.509476000,0.017704783,0.015732360,0.997471905,-0.038710412,-0.203112885,-0.096684664,0.173624615,0.154281748,9.781857858,-0.000675624,-0.003544989,-0.001687466,9.784615042,0.003983836
0.510467000,0.017674199,0.015831302,0.997396654,-0.010853138,-0.208470583,-0.012051562,0.173324686,0.155252033,9.781119901,-0.000189423,-0.003638498,-0.000210339,9.783887324,0.003649492
0.511458000,0.017638950,0.015862508,0.997292678,0.023107916,-0.108712740,0.078320295,0.172979011,0.155558063,9.780100239,0.000403309,-0.001897395,0.001366947,9.782866693,0.002373038
0.512496000,0.017607467,0.015822892,0.997192318,0.056619812,0.060937773,0.129497498,0.172670267,0.155169563,9.779116049,0.000988202,0.001063565,0.002260158,9.781871156,0.002686266
0.513441000,0.017562660,0.015711546,0.997131343,0.089358278,0.216763258,0.123798110,0.172230863,0.154077634,9.778518083,0.001559596,0.003783233,0.002160685,9.781248350,0.004627499
0.514435000,0.017487783,0.015552324,0.997139137,0.121306546,0.289169133,0.082730815,0.171496565,0.152516197,9.778594521,0.002117199,0.005046953,0.001443925,9.781287393,0.005660317
0.515423000,0.017373204,0.015396732,0.997181729,0.149786517,0.270583808,0.045925494,0.170372926,0.150990358,9.779012205,0.002614268,0.004722578,0.000801551,9.781661655,0.005457071
0.516414000,0.017243022,0.015307204,0.997176884,0.162858412,0.216308668,0.026454831,0.169096281,0.150112395,9.778964686,0.002842415,0.003775298,0.000461724,9.781578482,0.004748199
0.517450000,0.017148837,0.015317675,0.997070580,0.132152393,0.185468376,0.007839785,0.168172646,0.150215076,9.777922208,0.002306494,0.003237034,0.000136830,9.780521934,0.003977063
0.518396000,0.017140288,0.015410724,0.996909238,0.037715673,0.174660176,-0.023813451,0.168088810,0.151127581,9.776339976,0.000658263,0.003048395,-0.000415623,9.778952741,0.003146230
0.519390999,0.017234945,0.015519975,0.996774473,-0.090348065,0.144726112,-0.064485125,0.169017076,0.152198967,9.775018389,-0.001576871,0.002525947,-0.001125478,9.777664128,0.003183337
0.520430000,0.017427911,0.015576291,0.996716708,-0.185977772,0.082752742,-0.090824507,0.170909424,0.152751235,9.774451909,-0.003245924,0.001444308,-0.001585187,9.777139310,0.003890356
0.521370000,0.017657343,0.015557685,0.996740950,-0.197327852,0.019273480,-0.088360794,0.173159379,0.152568775,9.774689634,-0.003444021,0.000336386,-0.001542187,9.777413710,0.003788506
0.522408999,0.017864159,0.015488875,0.996825946,-0.120083168,-0.016338777,-0.069370307,0.175187556,0.151893971,9.775523164,-0.002095847,-0.000285165,-0.001210740,9.778272628,0.002437167
0.523353000,0.018042858,0.015385447,0.996963968,0.006189388,-0.026042949,-0.059834346,0.176939993,0.150879692,9.776876696,0.000108025,-0.000454535,-0.001044306,9.779641628,0.001144049
0.524349000,0.018247504,0.015254415,0.997161394,0.124826737,-0.024030186,-0.076417498,0.178946885,0.149594713,9.778812785,0.002178638,-0.000419406,-0.001333737,9.781593943,0.002588671
0.525337999,0.018499058,0.015138793,0.997392715,0.200923219,-0.030704610,-0.116864629,0.181413786,0.148460846,9.781081268,0.003506772,-0.000535897,-0.002039673,9.783889940,0.004092053
0.526333000,0.018772518,0.015072488,0.997630460,0.247687027,-0.068576507,-0.158769101,0.184095517,0.147810612,9.783412754,0.004322954,-0.001196886,-0.002771044,9.786260995,0.005272490
0.527363000,0.019015242,0.015055888,0.997870887,0.291105121,-0.140144274,-0.168316826,0.186475820,0.147647825,9.785770539,0.005080743,-0.002445979,-0.002937683,9.788660692,0.006358203
0.528309000,0.019174266,0.015085333,0.998117305,0.322050273,-0.215077877,-0.134848326,0.188035317,0.147936582,9.788187071,0.005620838,-0.003753817,-0.002353547,9.791110695,0.007157104
0.529300000,0.019236131,0.015160447,0.998361949,0.304547250,-0.258129925,-0.075137138,0.188642000,0.148673200,9.790586207,0.005315352,-0.004505217,-0.001311390,9.793531937,0.007090113
0.530291000,0.019217971,0.015277854,0.998590515,0.224211648,-0.257848322,-0.013537806,0.188463914,0.149824569,9.792827671,0.003913231,-0.004500302,-0.000236279,9.795786842,0.005968411
0.531283000,0.019111502,0.015437757,0.998799810,0.108088687,-0.210965708,0.040439054,0.187419815,0.151392677,9.794880157,0.001886503,-0.003682046,0.000705795,9.797842784,0.004196964
0.532320999,0.018902596,0.015627558,0.999010702,-0.001391412,-0.113211669,0.080706879,0.185371139,0.153253993,9.796948296,-0.000024285,-0.001975916,0.001408601,9.799900263,0.002426724
0.533265000,0.018646153,0.015798643,0.999253036,-0.070508443,0.005601609,0.084276639,0.182856293,0.154931767,9.799324788,-0.001230604,0.000097767,0.001470905,9.802255178,0.001920288
0.534256000,0.018417581,0.015913281,0.999547831,-0.084495172,0.093138158,0.038166840,0.180614769,0.156055980,9.802215733,-0.001474719,0.001625568,0.000666137,9.805121542,0.002293688
0.535247000,0.018285109,0.015945478,0.999847705,-0.051893219,0.129429936,-0.046392769,0.179315669,0.156371726,9.805156495,-0.000905708,0.002258979,-0.000809707,9.808042624,0.002564940
0.536239000,0.018239666,0.015915063,1.000110501,0.003236980,0.136637747,-0.125811920,0.178870019,0.156073448,9.807733647,0.000056496,0.002384779,-0.002195832,9.810606133,0.003242228
0.537274000,0.018222874,0.015849850,1.000316322,0.050826848,0.139474303,-0.145813018,0.178705348,0.155433935,9.809752060,0.000887096,0.002434286,-0.002544917,9.812610804,0.003631706
0.538221000,0.018154640,0.015764908,1.000476882,0.060585704,0.131190658,-0.090665922,0.178036196,0.154600932,9.811326620,0.001057420,0.002289709,-0.001582419,9.814159586,0.002977407
0.539216000,0.017991323,0.015667526,1.000595839,0.013334429,0.104888164,0.010973492,0.176434612,0.153645946,9.812493187,0.000232730,0.001830644,0.000191524,9.815281901,0.001855290
0.540206000,0.017744142,0.015573800,1.000685655,-0.072945617,0.074577332,0.108276166,0.174010592,0.152726803,9.813373976,-0.001273141,0.001301620,0.001889776,9.816104826,0.002624187
0.541197000,0.017471651,0.015523141,1.000752876,-0.139974192,0.056335293,0.162965715,0.171338371,0.152230013,9.814033191,-0.002443011,0.000983236,0.002844288,9.816709137,0.003876213
0.542241000,0.017227344,0.015550133,1.000810099,-0.134484127,0.058657642,0.166896239,0.168942535,0.152494715,9.814594360,-0.002347191,0.001023769,0.002912889,9.817232740,0.003878444
0.543176999,0.017087943,0.015681530,1.000860611,-0.060553648,0.079112254,0.136690617,0.167575478,0.153783272,9.815089709,-0.001056861,0.001380769,0.002385701,9.817724625,0.002952126
0.544169000,0.017059281,0.015919583,1.000895253,0.013684860,0.107525773,0.092454486,0.167294393,0.156117776,9.815429434,0.000238846,0.001876679,0.001613635,9.818096310,0.002486521
0.545168000,0.017109246,0.016209616,1.000899112,0.026509576,0.126163527,0.032586783,0.167784386,0.158962028,9.815467278,0.000462679,0.002201969,0.000568747,9.818188143,0.002320821
0.546153000,0.017172454,0.016467555,1.000873073,-0.012945904,0.111213304,-0.054893788,0.168404242,0.161491550,9.815211924,-0.000225949,0.001941038,-0.000958077,9.817984753,0.002176372
0.547195999,0.017209412,0.016648325,1.000818958,-0.048307516,0.051530544,-0.153890491,0.168766682,0.163264294,9.814681233,-0.000843125,0.000899378,-0.002685896,9.817489757,0.002955296
0.548133000,0.017240305,0.016754718,1.000734269,-0.041342597,-0.038848776,-0.212126747,0.169069634,0.164307653,9.813850716,-0.000721564,-0.000678039,-0.003702310,9.816682099,0.003832426
0.549128000,0.017306644,0.016808866,1.000620544,0.004863449,-0.124831930,-0.186072767,0.169720196,0.164838670,9.812735458,0.000084883,-0.002178728,-0.003247582,9.815587293,0.003911631
0.550116000,0.017396592,0.016813159,1.000509552,0.053395502,-0.173077136,-0.081136540,0.170602293,0.164880768,9.811647002,0.000931927,-0.003020766,-0.001416100,9.814515154,0.003463936
0.551107000,0.017459915,0.016774746,1.000438956,0.054696765,-0.168518856,0.054493990,0.171223276,0.164504064,9.810954689,0.000954639,-0.002941209,0.000951100,9.813827536,0.003235218
0.552146000,0.017457543,0.016704698,1.000428585,-0.012521371,-0.110675670,0.163298860,0.171200019,0.163817125,9.810852981,-0.000218539,-0.001931655,0.002850103,9.813713961,0.003449947
0.553089000,0.017399577,0.016623847,1.000441004,-0.123559900,-0.023221647,0.207860798,0.170631558,0.163024246,9.810974770,-0.002156527,-0.000405294,0.003627855,9.813812611,0.004239836
0.554084000,0.017306331,0.016565863,1.000407697,-0.221581891,0.051395055,0.187263444,0.169717131,0.162455621,9.810648141,-0.003867334,0.000897013,0.003268364,9.813460791,0.005142286
0.555070999,0.017185206,0.016545037,1.000284623,-0.261326551,0.094666757,0.135605067,0.168529296,0.162251389,9.809441202,-0.004561009,0.001652247,0.002366755,9.812230345,0.005397615
0.556063000,0.017049322,0.016535822,1.000093775,-0.242550433,0.120169111,0.100728139,0.167196736,0.162161017,9.807569618,-0.004233304,0.002097347,0.001758038,9.810334997,0.005040875
0.557098000,0.016928273,0.016507520,0.999887948,-0.190010786,0.135042086,0.108696938,0.166009647,0.161883471,9.805551145,-0.003316314,0.002356929,0.001897119,9.808292344,0.004489111
0.558045000,0.016833145,0.016460176,0.999708355,-0.119298175,0.130680278,0.150345609,0.165076766,0.161419188,9.803789944,-0.002082146,0.002280801,0.002624026,9.806508235,0.004052517
0.559036000,0.016751135,0.016415279,0.999564446,-0.035802297,0.100769453,0.192426175,0.164272523,0.160978896,9.802378672,-0.000624868,0.001758759,0.003358470,9.805076608,0.003842267
0.560027000,0.016687835,0.016385376,0.999476782,0.047020275,0.058181360,0.195981845,0.163651755,0.160685643,9.801518983,0.000820659,0.001015456,0.003420528,9.804201963,0.003661236
0.561019000,0.016642493,0.016351943,0.999437754,0.100150384,0.028479734,0.143330768,0.163207106,0.160357786,9.801136246,0.001747954,0.000497065,0.002501594,9.803806551,0.003091988
0.562058000,0.016606471,0.016288727,0.999396850,0.092269823,0.021859238,0.064305112,0.162853845,0.159737848,9.800735118,0.001610412,0.000381516,0.001122336,9.803389536,0.001999655
0.563001000,0.016594218,0.016190553,0.999279911,0.019234030,0.024996325,0.020678431,0.162733688,0.158775083,9.799588337,0.000335697,0.000436268,0.000360907,9.802225429,0.000658237
0.563993000,0.016641189,0.016077418,0.999054296,-0.100525431,0.021090781,0.041930981,0.163194317,0.157665611,9.797375814,-0.001754500,0.000368104,0.000731834,9.800003249,0.001936324
0.564983000,0.016773585,0.015963729,0.998772503,-0.235243589,0.014442265,0.093985915,0.164492675,0.156550706,9.794612371,-0.004105775,0.000252065,0.001640364,9.797244381,0.004428512
0.565980999,0.016972224,0.015850893,0.998559970,-0.335565507,0.016118539,0.114980690,0.166440661,0.155444158,9.792528133,-0.005856723,0.000281322,0.002006792,9.795175987,0.006197383
0.567010000,0.017168060,0.015725669,0.998481331,-0.363855153,0.027211055,0.074590653,0.168361159,0.154216132,9.791756943,-0.006350470,0.000474923,0.001301852,9.794418417,0.006499911
0.567958000,0.017310303,0.015596153,0.998483650,-0.314894676,0.054966033,0.000201225,0.169756087,0.152946011,9.791779691,-0.005495949,0.000959338,0.000003512,9.794445320,0.005579050
0.568948000,0.017388024,0.015495268,0.998476069,-0.217266545,0.099872574,-0.054657348,0.170518261,0.151956672,9.791705343,-0.003792017,0.001743105,-0.000953951,9.794368832,0.004281101
0.569943000,0.017434737,0.015421635,0.998425692,-0.113718100,0.139296681,-0.072893538,0.170976366,0.151234576,9.791211313,-0.001984755,0.002431186,-0.001272232,9.793871747,0.003386516
0.570931000,0.017483925,0.015349377,0.998370419,-0.043259453,0.140592992,-0.083831638,0.171458738,0.150525971,9.790669269,-0.000755020,0.002453811,-0.001463138,9.793327366,0.002954998
0.571970000,0.017544347,0.015259005,0.998355063,-0.035864256,0.094741784,-0.117318682,0.172051272,0.149639726,9.790518676,-0.000625949,0.001653556,-0.002047597,9.793173624,0.002705312
0.572913000,0.017578153,0.015151548,0.998381520,-0.086190008,0.025716644,-0.172610283,0.172382794,0.148585926,9.790778133,-0.001504299,0.000448840,-0.003012618,9.793422796,0.003397093
0.573904000,0.017534655,0.015043524,0.998451024,-0.147170171,-0.036337379,-0.217160165,0.171956229,0.147526579,9.791459732,-0.002568604,-0.000634207,-0.003790160,9.794080698,0.004622257
0.574896000,0.017408706,0.014984587,0.998551721,-0.168349847,-0.069433957,-0.217234224,0.170721086,0.146948603,9.792447231,-0.002938259,-0.001211851,-0.003791452,9.795037639,0.004947430
0.575887000,0.017271439,0.015028547,0.998629436,-0.132259026,-0.068103388,-0.170079872,0.169374955,0.147379700,9.793209354,-0.002308355,-0.001188628,-0.002968454,9.795782669,0.003943737
0.576923000,0.017225982,0.015161266,0.998598762,-0.057767611,-0.044455323,-0.099952295,0.168929180,0.148681230,9.792908546,-0.001008235,-0.000775892,-0.001744497,9.795493911,0.002159124
0.577869000,0.017312928,0.015310919,0.998394361,0.016232664,-0.022641942,-0.034282308,0.169781828,0.150148826,9.790904060,0.000283313,-0.000395176,-0.000598339,9.793527090,0.000771000
0.578860000,0.017498834,0.015372623,0.998032833,0.056626696,-0.025465671,0.017077483,0.171604939,0.150753929,9.787358677,0.000988322,-0.000444460,0.000298058,9.790023742,0.001123906
0.579855000,0.017720938,0.015241857,0.997583348,0.047698010,-0.059594810,0.057553399,0.173783041,0.149471557,9.782950737,0.000832487,-0.001040126,0.001004496,9.785635769,0.001668505
0.580843000,0.017923453,0.014884142,0.997143009,-0.003550238,-0.102822587,0.079576254,0.175769031,0.145963571,9.778632494,-0.000061963,-0.001794593,0.001388868,9.781301220,0.002270100
0.581883000,0.018093969,0.014420989,0.996750478,-0.071786404,-0.105944887,0.068750225,0.177441217,0.141421588,9.774783075,-0.001252909,-0.001849087,0.001199918,9.777416306,0.002535490
0.582828000,0.018221766,0.014066956,0.996439037,-0.132970333,-0.035269074,0.024056772,0.178694480,0.137949716,9.771728882,-0.002320770,-0.000615561,0.000419870,9.774336150,0.002437454
0.583819000,0.018294001,0.013945204,0.996252629,-0.168133155,0.089632213,-0.043124259,0.179402866,0.136755739,9.769900840,-0.002934477,0.001564377,-0.000752660,9.772504794,0.003409535
0.584810000,0.018307608,0.014054279,0.996246766,-0.167115986,0.209707603,-0.108968213,0.179536302,0.137825400,9.769843344,-0.002916724,0.003660088,-0.001901854,9.772464791,0.005051789
0.585799000,0.018281036,0.014321421,0.996421254,-0.131598800,0.279911429,-0.147926286,0.179275722,0.140445158,9.771554494,-0.002296832,0.004885376,-0.002581801,9.774207991,0.005983981
0.586837000,0.018241500,0.014661622,0.996712848,-0.074405305,0.298554957,-0.158025742,0.178888006,0.143781399,9.774414053,-0.001298618,0.005210767,-0.002758069,9.777108165,0.006037007
0.587781000,0.018221661,0.014993169,0.997037282,-0.019920563,0.288400292,-0.157699868,0.178693456,0.147032758,9.777595664,-0.000347679,0.005033535,-0.002752382,9.780333683,0.005747431
0.588783999,0.018252465,0.015267053,0.997319625,0.011915421,0.277218789,-0.155122504,0.178995539,0.149718641,9.780364503,0.000207963,0.004838381,-0.002707398,9.783148005,0.005548259
0.589764000,0.018333908,0.015518950,0.997551486,0.012659555,0.284489512,-0.135019422,0.179794222,0.152188907,9.782638282,0.000220951,0.004965279,-0.002356533,9.785473887,0.005500551
0.590755000,0.018427881,0.015764662,0.997720901,-0.024550274,0.316387594,-0.081849925,0.180715777,0.154598520,9.784299673,-0.000428483,0.005522005,-0.001428551,9.787189535,0.005719869
0.591797000,0.018499055,0.015997999,0.997855269,-0.093269736,0.360143006,-0.005335219,0.181413761,0.156886781,9.785617370,-0.001627864,0.006285681,-0.000093117,9.788556161,0.006493720
0.592737000,0.018541544,0.016189557,0.997986796,-0.164805412,0.390393287,0.068541914,0.181830437,0.158765319,9.786907215,-0.002876397,0.006813648,0.001196282,9.789883634,0.007492033
0.593728000,0.018569059,0.016298931,0.998106038,-0.204816237,0.391525567,0.127489522,0.182100263,0.159837909,9.788076573,-0.003574718,0.006833410,0.002225112,9.791075103,0.008026533
0.594720000,0.018608313,0.016353029,0.998210979,-0.196598694,0.372497022,0.185111150,0.182485216,0.160368433,9.789105699,-0.003431295,0.006501299,0.003230799,9.792119754,0.008029865
0.595711000,0.018667278,0.016400804,0.998306799,-0.152099937,0.352695733,0.245526180,0.183063461,0.160836944,9.790045368,-0.002654645,0.006155702,0.004285240,9.793077610,0.007956324
0.596748999,0.018728402,0.016471459,0.998408868,-0.097968824,0.322089970,0.262378901,0.183662879,0.161529833,9.791046330,-0.001709879,0.005621530,0.004579376,9.794100887,0.007449562
0.597693000,0.018776137,0.016556033,0.998527152,-0.051904734,0.249583110,0.181490093,0.184131002,0.162359221,9.792206298,-0.000905909,0.004356047,0.003167600,9.795282993,0.005461639
0.598687000,0.018820252,0.016635870,0.998660647,-0.012676853,0.136060312,0.019590782,0.184563624,0.163142152,9.793515438,-0.000221253,0.002374700,0.000341924,9.796612870,0.002409371
0.599677999,0.018874550,0.016671130,0.998772219,0.024397269,0.028944718,-0.135381714,0.185096109,0.163487936,9.794609585,0.000425813,0.000505181,-0.002362857,9.797722481,0.002453490
0.600669000,0.018966180,0.016633347,0.998834816,0.056386627,-0.027097365,-0.210484594,0.185994694,0.163117412,9.795223452,0.000984132,-0.000472938,-0.003673649,9.798346993,0.003832478
0.601705000,0.019097601,0.016534580,0.998836728,0.074340999,-0.025154287,-0.198660195,0.187283487,0.162148836,9.795242196,0.001297495,-0.000439025,-0.003467274,9.798374204,0.003728033
0.602651000,0.019254882,0.016423177,0.998821273,0.070817091,0.021842023,-0.132187471,0.188825891,0.161056346,9.795090641,0.001235991,0.000381215,-0.002307107,9.798234281,0.002644946
0.603643000,0.019423384,0.016342932,0.998850166,0.043301828,0.085139632,-0.056735400,0.190478331,0.160269412,9.795373984,0.000755759,0.001485967,-0.000990220,9.798536614,0.001939022
0.604635000,0.019610267,0.016306591,0.998940168,-0.005013663,0.122249000,-0.018946754,0.192311027,0.159913029,9.796256599,-0.000087505,0.002133648,-0.000330683,9.799448916,0.002160893
0.605625000,0.019821343,0.016320564,0.999064884,-0.057459101,0.100211702,-0.031995431,0.194380969,0.160050056,9.797479642,-0.001002850,0.001749024,-0.000558426,9.800714633,0.002092041
0.606662000,0.020028268,0.016391450,0.999196210,-0.093811110,0.013732560,-0.056376040,0.196410217,0.160745214,9.798767509,-0.001637313,0.000239678,-0.000983948,9.802053901,0.001925199
0.607608000,0.020168567,0.016493627,0.999304323,-0.109908901,-0.094113432,-0.045227338,0.197786081,0.161747228,9.799827735,-0.001918272,-0.001642589,-0.000789366,9.803157916,0.002645934
0.608599000,0.020245398,0.016615461,0.999408810,-0.115890622,-0.164410770,0.020757141,0.198539528,0.162942013,9.800852411,-0.002022673,-0.002869509,0.000362280,9.804217257,0.003529382
0.609591000,0.020202653,0.016677709,0.999469681,-0.112977669,-0.183559805,0.121244229,0.198120350,0.163552458,9.801449352,-0.001971832,-0.003203723,0.002116111,9.804815678,0.004316236
0.610582000,0.020092486,0.016665261,0.999474530,-0.089333750,-0.182466954,0.197632223,0.197039981,0.163430382,9.801496900,-0.001559168,-0.003184649,0.003449333,9.804839404,0.004946806
0.611626000,0.019981298,0.016578102,0.999390768,-0.045778736,-0.191330194,0.205837414,0.195949591,0.162575645,9.800675471,-0.000798990,-0.003339342,0.003592541,9.803982189,0.004969501
0.612558000,0.019906853,0.016444365,0.999215204,-0.000468275,-0.197823137,0.156470075,0.195219538,0.161264134,9.798953778,-0.000008173,-0.003452665,0.002730918,9.802224846,0.004402144
0.613551999,0.019847740,0.016313296,0.998967302,0.034528859,-0.176611245,0.099160135,0.194639839,0.159978781,9.796522688,0.000602642,-0.003082448,0.001730671,9.799761969,0.003586068
0.614550000,0.019794124,0.016245834,0.998698454,0.055180185,-0.137240976,0.068228804,0.194114046,0.159317204,9.793886192,0.000963076,-0.002395307,0.001190817,9.797105133,0.002843072
0.615537000,0.019744206,0.016265650,0.998442917,0.056518357,-0.107467718,0.047531482,0.193624519,0.159511533,9.791380228,0.000986431,-0.001875666,0.000829581,9.794593465,0.002275823
0.616580000,0.019676983,0.016381644,0.998264686,0.042479821,-0.104802340,0.010345623,0.192965283,0.160649053,9.789632387,0.000741413,-0.001829146,0.000180565,9.792851780,0.001981936
0.617518000,0.019556758,0.016583178,0.998229811,0.034731980,-0.138486072,-0.039350346,0.191786286,0.162625425,9.789290373,0.000606187,-0.002417038,-0.000686793,9.792519340,0.002584806
0.618513000,0.019384795,0.016821910,0.998356138,0.045585971,-0.211987808,-0.077581696,0.190099902,0.164966585,9.790529225,0.000795625,-0.003699885,-0.001354056,9.793764060,0.004019408
0.619509000,0.019187641,0.017039243,0.998590137,0.055138733,-0.294325113,-0.089041576,0.188166479,0.167097890,9.792823965,0.000962352,-0.005136942,-0.001554069,9.796056836,0.005452470
0.620497000,0.019012335,0.017174855,0.998853292,0.042579152,-0.326395124,-0.076773271,0.186447318,0.168427793,9.795404638,0.000743146,-0.005696670,-0.001339946,9.798626564,0.005899133
0.621542000,0.018887526,0.017175276,0.999096696,0.024277702,-0.279959023,-0.046652012,0.185223358,0.168431919,9.797791610,0.000423726,-0.004886207,-0.000814231,9.800989615,0.004971673
0.622480999,0.018801754,0.016999215,0.999318716,0.034686062,-0.186587393,-0.007677305,0.184382220,0.166705347,9.799968885,0.000605386,-0.003256564,-0.000133994,9.803120810,0.003315065
0.623465000,0.018717892,0.016655303,0.999534791,0.077003270,-0.101440214,0.017197089,0.183559812,0.163332724,9.802087863,0.001343961,-0.001770466,0.000300146,9.805166916,0.002242959
0.624456000,0.018603765,0.016210588,0.999733254,0.113126643,-0.055759527,0.002390154,0.182440615,0.158971558,9.804034112,0.001974432,-0.000973187,0.000041716,9.807020006,0.002201640
0.625448000,0.018454120,0.015751748,0.999902204,0.108565792,-0.051996578,-0.048909895,0.180973094,0.154471878,9.805690947,0.001894831,-0.000907511,-0.000853639,9.808577256,0.002267743
0.626486000,0.018277448,0.015316229,1.000043512,0.067943580,-0.075174980,-0.103060141,0.179240537,0.150200893,9.807076704,0.001185839,-0.001312051,-0.001798739,9.809864472,0.002522529
0.627432000,0.018051469,0.014886896,1.000152308,0.019897502,-0.107326418,-0.126094639,0.177024437,0.145990579,9.808143631,0.000347277,-0.001873199,-0.002200767,9.810827304,0.002910816
0.628424000,0.017741934,0.014464225,1.000206265,-0.011671264,-0.135142431,-0.104234613,0.173988935,0.141845588,9.808672773,-0.000203702,-0.002358680,-0.001819237,9.811241200,0.002985715
0.629418000,0.017333653,0.014043091,1.000205570,-0.032126654,-0.155693427,-0.050250337,0.169985070,0.137715677,9.808665956,-0.000560716,-0.002717363,-0.000877034,9.811105359,0.002909923
0.630408000,0.016844559,0.013606569,1.000179905,-0.060235750,-0.174510509,0.018018447,0.165188695,0.133434856,9.808414262,-0.001051312,-0.003045783,0.000314481,9.810712640,0.003237429
0.631447000,0.016420556,0.013243400,1.000176167,-0.101000451,-0.191818222,0.086346403,0.161030643,0.129873393,9.808377610,-0.001762790,-0.003347860,0.001507029,9.810559073,0.004072681
0.632399000,0.016164506,0.013014260,1.000223697,-0.143282801,-0.199558556,0.139279440,0.158519652,0.127626292,9.808843719,-0.002500757,-0.003482954,0.002430885,9.810954697,0.004928890
0.633385000,0.016128226,0.012964277,1.000309590,-0.167246655,-0.178639919,0.163610846,0.158163868,0.127136126,9.809686040,-0.002919005,-0.003117855,0.002855548,9.811784731,0.005137681
0.634377000,0.016235425,0.013050081,1.000388544,-0.158069625,-0.122145556,0.155307457,0.159215133,0.127977578,9.810460311,-0.002758835,-0.002131842,0.002710626,9.812586776,0.004416268
0.635371000,0.016396088,0.013223863,1.000435669,-0.108945951,-0.050132375,0.112776488,0.160790693,0.129681793,9.810922453,-0.001901466,-0.000874975,0.001968321,9.813096881,0.002873228
0.636403000,0.016576539,0.013473428,1.000481110,-0.032346725,0.013409107,0.033103455,0.162560316,0.132129194,9.811368074,-0.000564557,0.000234033,0.000577764,9.813604203,0.000841016
0.637349000,0.016781019,0.013787258,1.000544910,0.037999358,0.058243312,-0.061397295,0.164565576,0.135206811,9.811993744,0.000663214,0.001016538,-0.001071585,9.814305066,0.001619103
0.638348000,0.017036552,0.014183478,1.000603934,0.078210995,0.071525611,-0.142936900,0.167071504,0.139092408,9.812572566,0.001365039,0.001248357,-0.002494720,9.814980384,0.003105697
0.639335000,0.017335757,0.014685743,1.000630835,0.096181996,0.027420079,-0.200240090,0.170005706,0.144017943,9.812836383,0.001678693,0.000478571,-0.003494849,9.815365555,0.003906534
0.640326000,0.017626502,0.015274843,1.000607977,0.119608290,-0.070558764,-0.232233867,0.172856932,0.149795035,9.812612220,0.002087558,-0.001231483,-0.004053246,9.815277717,0.004722632
0.641362000,0.017851435,0.015852718,1.000547969,0.161104381,-0.171322078,-0.240245134,0.175062773,0.155462060,9.812023744,0.002811802,-0.002990134,-0.004193069,9.814816625,0.005867619
0.642306000,0.018006849,0.016333168,1.000504654,0.201014638,-0.209810674,-0.220904887,0.176586862,0.160173657,9.811598960,0.003508367,-0.003661887,-0.003855518,9.814495029,0.006370485
0.643295000,0.018090534,0.016629079,1.000540881,0.218702093,-0.154256359,-0.180419013,0.177407538,0.163075553,9.811954235,0.003817072,-0.002692281,-0.003148906,9.814912785,0.005633296
0.644287000,0.018112972,0.016783048,1.000675067,0.213749334,-0.028913913,-0.128557190,0.177627581,0.164585479,9.813270151,0.003730630,-0.000504643,-0.002243746,9.816257484,0.004382540
0.645278000,0.018088790,0.016878727,1.000871541,0.184497446,0.101990759,-0.075039133,0.177390429,0.165523764,9.815196894,0.003220088,0.001780075,-0.001309680,9.818195127,0.003905495
0.646308000,0.018050730,0.016965791,1.001050030,0.128983080,0.172056273,-0.030582055,0.177017195,0.166377573,9.816947276,0.002251179,0.003002948,-0.000533758,9.819952668,0.003790832
0.647254000,0.018038888,0.017069364,1.001144275,0.065165073,0.154220775,0.001215183,0.176901060,0.167393279,9.817871506,0.001137345,0.002691660,0.000021209,9.820891783,0.002922163
0.648255000,0.018069510,0.017219668,1.001153623,0.020302046,0.071104638,0.026550030,0.177201363,0.168867259,9.817963182,0.000354338,0.001241010,0.000463385,9.821014078,0.001371272
